"Time (s)","Acceleration x (m/s^2)","Acceleration y (m/s^2)","Acceleration z (m/s^2)"
3.322782516E-1,-1.532289088E-1,1.532289088E-1,9.185305595E0
3.332462311E-1,-1.532289088E-1,1.915361285E-1,9.185305595E0
3.342471123E-1,-1.532289088E-1,1.532289088E-1,9.185305595E0
3.352282047E-1,-1.532289088E-1,1.915361285E-1,9.185305595E0
3.362410069E-1,-1.532289088E-1,1.532289088E-1,9.185305595E0
3.372750282E-1,-1.532289088E-1,1.915361285E-1,9.185305595E0
3.382592201E-1,-1.532289088E-1,1.532289088E-1,9.185305595E0
3.392553329E-1,-1.532289088E-1,1.915361285E-1,9.185305595E0
3.402421474E-1,-1.532289088E-1,3.830722719E-2,9.305082321E0
3.412661552E-1,-1.532289088E-1,7.661445439E-2,9.305082321E0
3.422501087E-1,-1.532289088E-1,3.830722719E-2,9.305082321E0
3.432621956E-1,-1.532289088E-1,7.661445439E-2,9.305082321E0
3.442373276E-1,-1.532289088E-1,3.830722719E-2,9.305082321E0
3.452382088E-1,-1.532289088E-1,7.661445439E-2,9.305082321E0
3.462340832E-1,-1.532289088E-1,3.830722719E-2,9.305082321E0
3.472630978E-1,-1.532289088E-1,7.661445439E-2,9.305082321E0
3.482520580E-1,-1.532289088E-1,3.830722719E-2,9.305082321E0
3.492560387E-1,-1.532289088E-1,7.661445439E-2,9.305082321E0
3.502559662E-1,-1.149216816E-1,0.000000000E0,9.457903862E0
3.512401581E-1,-1.149216816E-1,3.830722719E-2,9.457903862E0
3.522381783E-1,-1.149216816E-1,0.000000000E0,9.457903862E0
3.532392979E-1,-1.149216816E-1,3.830722719E-2,9.457903862E0
3.542339802E-1,-1.149216816E-1,0.000000000E0,9.457903862E0
3.552322388E-1,-1.149216816E-1,3.830722719E-2,9.457903862E0
3.562383652E-1,-1.149216816E-1,0.000000000E0,9.457903862E0
3.572361469E-1,-1.149216816E-1,3.830722719E-2,9.457903862E0
3.582432270E-1,-1.149216816E-1,0.000000000E0,9.457903862E0
3.592510223E-1,-1.149216816E-1,3.830722719E-2,9.457903862E0
3.602561951E-1,-1.149216816E-1,7.661445439E-2,9.468379974E0
3.612482548E-1,-1.149216816E-1,1.149216816E-1,9.468379974E0
3.622481823E-1,-1.149216816E-1,7.661445439E-2,9.468379974E0
3.632311821E-1,-1.149216816E-1,1.149216816E-1,9.468379974E0
3.642241955E-1,-1.149216816E-1,7.661445439E-2,9.468379974E0
3.652372360E-1,-1.149216816E-1,1.149216816E-1,9.468379974E0
3.662581444E-1,-1.149216816E-1,7.661445439E-2,9.468379974E0
3.672580719E-1,-1.149216816E-1,1.149216816E-1,9.468379974E0
3.682389259E-1,-1.149216816E-1,7.661445439E-2,9.468379974E0
3.692402840E-1,-1.149216816E-1,1.149216816E-1,9.468379974E0
3.702349663E-1,-1.915361285E-1,1.149216816E-1,9.618106842E0
3.712353706E-1,-1.915361285E-1,1.532289088E-1,9.618106842E0
3.722400665E-1,-1.915361285E-1,1.149216816E-1,9.618106842E0
3.732531071E-1,-1.915361285E-1,1.532289088E-1,9.618106842E0
3.742601871E-1,-1.915361285E-1,1.149216816E-1,9.618106842E0
3.752601147E-1,-1.915361285E-1,1.532289088E-1,9.618106842E0
3.762462139E-1,-1.915361285E-1,1.149216816E-1,9.618106842E0
3.772401810E-1,-1.915361285E-1,1.532289088E-1,9.618106842E0
3.782422543E-1,-1.915361285E-1,1.149216816E-1,9.618106842E0
3.792443275E-1,-1.915361285E-1,1.532289088E-1,9.618106842E0
3.802361488E-1,-1.915361285E-1,1.149216816E-1,9.619086266E0
3.812561035E-1,-1.915361285E-1,1.532289088E-1,9.619086266E0
3.822581768E-1,-1.915361285E-1,1.149216816E-1,9.619086266E0
3.832480907E-1,-1.915361285E-1,1.532289088E-1,9.619086266E0
3.842551708E-1,-1.915361285E-1,1.149216816E-1,9.619086266E0
3.852412701E-1,-1.915361285E-1,1.532289088E-1,9.619086266E0
3.862450123E-1,-1.915361285E-1,1.149216816E-1,9.619086266E0
3.872432709E-1,-1.915361285E-1,1.532289088E-1,9.619086266E0
3.882451057E-1,-1.915361285E-1,1.149216816E-1,9.619086266E0
3.892402649E-1,-1.915361285E-1,1.532289088E-1,9.619086266E0
3.902561665E-1,-7.661445439E-2,0.000000000E0,9.717432022E0
3.912401199E-1,-7.661445439E-2,3.830722719E-2,9.717432022E0
3.922662735E-1,-7.661445439E-2,0.000000000E0,9.717432022E0
3.932702541E-1,-7.661445439E-2,3.830722719E-2,9.717432022E0
3.942470551E-1,-7.661445439E-2,0.000000000E0,9.717432022E0
3.952491283E-1,-7.661445439E-2,3.830722719E-2,9.717432022E0
3.962583542E-1,-7.661445439E-2,0.000000000E0,9.717432022E0
3.972749710E-1,-7.661445439E-2,3.830722719E-2,9.717432022E0
3.982303143E-1,-7.661445439E-2,0.000000000E0,9.717432022E0
3.992421627E-1,-7.661445439E-2,3.830722719E-2,9.717432022E0
4.002332687E-1,-1.532289088E-1,-3.830722719E-2,9.772076607E0
4.022979736E-1,-1.532289088E-1,0.000000000E0,9.772076607E0
4.026231766E-1,-1.532289088E-1,-3.830722719E-2,9.772076607E0
4.032621384E-1,-1.532289088E-1,0.000000000E0,9.772076607E0
4.042813778E-1,-1.532289088E-1,-3.830722719E-2,9.772076607E0
4.054012299E-1,-1.532289088E-1,0.000000000E0,9.772076607E0
4.062681198E-1,-1.532289088E-1,-3.830722719E-2,9.772076607E0
4.072773457E-1,-1.532289088E-1,0.000000000E0,9.772076607E0
4.082882404E-1,-1.532289088E-1,-3.830722719E-2,9.772076607E0
4.092841148E-1,-1.915361285E-1,1.149216816E-1,9.795855522E0
4.103031158E-1,-1.915361285E-1,1.532289088E-1,9.795855522E0
4.112641811E-1,-1.915361285E-1,1.149216816E-1,9.795855522E0
4.123051167E-1,-1.915361285E-1,1.532289088E-1,9.795855522E0
4.132881165E-1,-1.915361285E-1,1.149216816E-1,9.795855522E0
4.142711163E-1,-1.915361285E-1,1.532289088E-1,9.795855522E0
4.152710438E-1,-1.915361285E-1,1.149216816E-1,9.795855522E0
4.162721634E-1,-1.915361285E-1,1.532289088E-1,9.795855522E0
4.172933102E-1,-1.915361285E-1,1.149216816E-1,9.795855522E0
4.183351994E-1,-1.915361285E-1,1.532289088E-1,9.795855522E0
4.192852974E-1,-1.532289088E-1,1.149216816E-1,9.803630829E0
4.202840328E-1,-1.532289088E-1,1.532289088E-1,9.803630829E0
4.212892056E-1,-1.532289088E-1,1.149216816E-1,9.803630829E0
4.222700596E-1,-1.532289088E-1,1.532289088E-1,9.803630829E0
4.232721329E-1,-1.532289088E-1,1.149216816E-1,9.803630829E0
4.242751598E-1,-1.532289088E-1,1.532289088E-1,9.803630829E0
4.252951145E-1,-1.532289088E-1,1.149216816E-1,9.803630829E0
4.262659550E-1,-1.532289088E-1,1.532289088E-1,9.803630829E0
4.272511005E-1,-1.532289088E-1,1.149216816E-1,9.803630829E0
4.282593727E-1,-1.532289088E-1,1.532289088E-1,9.803630829E0
4.292662144E-1,-2.298433632E-1,3.830722719E-2,9.806314468E0
4.302601814E-1,-2.298433632E-1,7.661445439E-2,9.806314468E0
4.312553406E-1,-2.298433632E-1,3.830722719E-2,9.806314468E0
4.322621822E-1,-2.298433632E-1,7.661445439E-2,9.806314468E0
4.332520962E-1,-2.298433632E-1,3.830722719E-2,9.806314468E0
4.346232414E-1,-2.298433632E-1,7.661445439E-2,9.806314468E0
4.352631569E-1,-2.298433632E-1,3.830722719E-2,9.806314468E0
4.362683296E-1,-2.298433632E-1,7.661445439E-2,9.806314468E0
4.372692108E-1,-2.298433632E-1,3.830722719E-2,9.806314468E0
4.382550716E-1,-2.298433632E-1,7.661445439E-2,9.806314468E0
4.392502308E-1,-1.149216816E-1,3.830722719E-2,9.806503296E0
4.402630329E-1,-1.149216816E-1,7.661445439E-2,9.806503296E0
4.417071342E-1,-1.149216816E-1,3.830722719E-2,9.806503296E0
4.422581196E-1,-1.149216816E-1,7.661445439E-2,9.806503296E0
4.432721138E-1,-1.149216816E-1,3.830722719E-2,9.806503296E0
4.442660809E-1,-1.149216816E-1,7.661445439E-2,9.806503296E0
4.453241825E-1,-1.149216816E-1,3.830722719E-2,9.806503296E0
4.463152885E-1,-1.149216816E-1,7.661445439E-2,9.806503296E0
4.472982883E-1,-1.149216816E-1,3.830722719E-2,9.806503296E0
4.483301640E-1,-1.149216816E-1,7.661445439E-2,9.806503296E0
4.495110512E-1,-2.298433632E-1,7.661445439E-2,9.805927277E0
4.502990246E-1,-2.298433632E-1,1.149216816E-1,9.805927277E0
4.518542290E-1,-2.298433632E-1,7.661445439E-2,9.805927277E0
4.522881508E-1,-2.298433632E-1,1.149216816E-1,9.805927277E0
4.533121586E-1,-2.298433632E-1,7.661445439E-2,9.805927277E0
4.543292522E-1,-2.298433632E-1,1.149216816E-1,9.805927277E0
4.552941322E-1,-2.298433632E-1,7.661445439E-2,9.805927277E0
4.562852383E-1,-2.298433632E-1,1.149216816E-1,9.805927277E0
4.574351311E-1,-2.298433632E-1,7.661445439E-2,9.805927277E0
4.583342075E-1,-2.298433632E-1,1.149216816E-1,9.805927277E0
4.592721462E-1,-1.532289088E-1,7.661445439E-2,9.805646896E0
4.602491856E-1,-1.532289088E-1,1.149216816E-1,9.805646896E0
4.612882137E-1,-1.532289088E-1,7.661445439E-2,9.805646896E0
4.622972012E-1,-1.532289088E-1,1.149216816E-1,9.805646896E0
4.632873535E-1,-1.532289088E-1,7.661445439E-2,9.805646896E0
4.642651081E-1,-1.532289088E-1,1.149216816E-1,9.805646896E0
4.652621746E-1,-1.532289088E-1,7.661445439E-2,9.805646896E0
4.662661552E-1,-1.532289088E-1,1.149216816E-1,9.805646896E0
4.672901630E-1,-1.532289088E-1,7.661445439E-2,9.805646896E0
4.682919979E-1,-1.532289088E-1,1.149216816E-1,9.805646896E0
4.693431854E-1,-7.661445439E-2,0.000000000E0,9.806039810E0
4.702990055E-1,-7.661445439E-2,3.830722719E-2,9.806039810E0
4.712800980E-1,-7.661445439E-2,0.000000000E0,9.806039810E0
4.722762108E-1,-7.661445439E-2,3.830722719E-2,9.806039810E0
4.736201763E-1,-7.661445439E-2,0.000000000E0,9.806039810E0
4.743182659E-1,-7.661445439E-2,3.830722719E-2,9.806039810E0
4.754521847E-1,-7.661445439E-2,0.000000000E0,9.806039810E0
4.763290882E-1,-7.661445439E-2,3.830722719E-2,9.806039810E0
4.772980213E-1,-7.661445439E-2,0.000000000E0,9.806039810E0
4.783163071E-1,-7.661445439E-2,3.830722719E-2,9.806039810E0
4.793081284E-1,-1.915361285E-1,-3.830722719E-2,9.805670738E0
4.803700447E-1,-1.915361285E-1,0.000000000E0,9.805670738E0
4.816751480E-1,-1.915361285E-1,-3.830722719E-2,9.805670738E0
4.822771549E-1,-1.915361285E-1,0.000000000E0,9.805670738E0
4.832899570E-1,-1.915361285E-1,-3.830722719E-2,9.805670738E0
4.842829704E-1,-1.915361285E-1,0.000000000E0,9.805670738E0
4.853081703E-1,-1.915361285E-1,-3.830722719E-2,9.805670738E0
4.862852097E-1,-1.915361285E-1,0.000000000E0,9.805670738E0
4.873092175E-1,-1.915361285E-1,-3.830722719E-2,9.805670738E0
4.883100986E-1,-1.915361285E-1,0.000000000E0,9.805670738E0
4.894602299E-1,-1.532289088E-1,1.532289088E-1,9.805310249E0
4.904181957E-1,-1.532289088E-1,1.915361285E-1,9.805310249E0
4.913771152E-1,-1.532289088E-1,1.532289088E-1,9.805310249E0
4.924561977E-1,-1.532289088E-1,1.915361285E-1,9.805310249E0
4.933211803E-1,-1.532289088E-1,1.532289088E-1,9.805310249E0
4.944331646E-1,-1.532289088E-1,1.915361285E-1,9.805310249E0
4.954211712E-1,-1.532289088E-1,1.532289088E-1,9.805310249E0
4.964151382E-1,-1.532289088E-1,1.915361285E-1,9.805310249E0
4.974522591E-1,-1.532289088E-1,1.532289088E-1,9.805310249E0
4.984033108E-1,-1.532289088E-1,1.915361285E-1,9.805310249E0
4.993822575E-1,-2.298433632E-1,1.149216816E-1,9.805310249E0
5.002901554E-1,-2.298433632E-1,1.532289088E-1,9.805310249E0
5.012791157E-1,-2.298433632E-1,1.149216816E-1,9.805310249E0
5.022921562E-1,-2.298433632E-1,1.532289088E-1,9.805310249E0
5.036630630E-1,-2.298433632E-1,1.149216816E-1,9.805310249E0
5.043401718E-1,-2.298433632E-1,1.532289088E-1,9.805310249E0
5.053782463E-1,-2.298433632E-1,1.149216816E-1,9.805310249E0
5.064563751E-1,-2.298433632E-1,1.532289088E-1,9.805310249E0
5.077462196E-1,-2.298433632E-1,1.149216816E-1,9.805310249E0
5.083410740E-1,-2.298433632E-1,1.532289088E-1,9.805310249E0
5.093312263E-1,-7.661445439E-2,7.661445439E-2,9.805656433E0
5.103020668E-1,-7.661445439E-2,1.149216816E-1,9.805656433E0
5.112822056E-1,-7.661445439E-2,7.661445439E-2,9.805656433E0
5.123031139E-1,-7.661445439E-2,1.149216816E-1,9.805656433E0
5.133352280E-1,-7.661445439E-2,7.661445439E-2,9.805656433E0
5.143182278E-1,-7.661445439E-2,1.149216816E-1,9.805656433E0
5.154373646E-1,-7.661445439E-2,7.661445439E-2,9.805656433E0
5.163662434E-1,-7.661445439E-2,1.149216816E-1,9.805656433E0
5.174641609E-1,-7.661445439E-2,7.661445439E-2,9.805656433E0
5.183951855E-1,-1.915361285E-1,3.830722719E-2,9.805382729E0
5.193262100E-1,-1.915361285E-1,7.661445439E-2,9.805382729E0
5.205311775E-1,-1.915361285E-1,3.830722719E-2,9.805382729E0
5.212872028E-1,-1.915361285E-1,7.661445439E-2,9.805382729E0
5.223262310E-1,-1.915361285E-1,3.830722719E-2,9.805382729E0
5.233111382E-1,-1.915361285E-1,7.661445439E-2,9.805382729E0
5.243239403E-1,-1.915361285E-1,3.830722719E-2,9.805382729E0
5.258941650E-1,-1.915361285E-1,7.661445439E-2,9.805382729E0
5.262792110E-1,-1.915361285E-1,3.830722719E-2,9.805382729E0
5.273470879E-1,-1.915361285E-1,7.661445439E-2,9.805382729E0
5.284199715E-1,-1.532289088E-1,7.661445439E-2,9.805285454E0
5.293121338E-1,-1.532289088E-1,1.149216816E-1,9.805285454E0
5.302879810E-1,-1.532289088E-1,7.661445439E-2,9.805285454E0
5.312783718E-1,-1.532289088E-1,1.149216816E-1,9.805285454E0
5.323281288E-1,-1.532289088E-1,7.661445439E-2,9.805285454E0
5.334470272E-1,-1.532289088E-1,1.149216816E-1,9.805285454E0
5.343232155E-1,-1.532289088E-1,7.661445439E-2,9.805285454E0
5.352911949E-1,-1.532289088E-1,1.149216816E-1,9.805285454E0
5.363223553E-1,-1.532289088E-1,7.661445439E-2,9.805285454E0
5.374660492E-1,-1.532289088E-1,1.149216816E-1,9.805285454E0
5.383052826E-1,-7.661445439E-2,7.661445439E-2,9.805285454E0
5.394561291E-1,-7.661445439E-2,1.149216816E-1,9.805285454E0
5.402750969E-1,-7.661445439E-2,7.661445439E-2,9.805285454E0
5.412771702E-1,-7.661445439E-2,1.149216816E-1,9.805285454E0
5.422780514E-1,-7.661445439E-2,7.661445439E-2,9.805285454E0
5.432763100E-1,-7.661445439E-2,1.149216816E-1,9.805285454E0
5.442731380E-1,-7.661445439E-2,7.661445439E-2,9.805285454E0
5.452692509E-1,-7.661445439E-2,1.149216816E-1,9.805285454E0
5.464282036E-1,-7.661445439E-2,7.661445439E-2,9.805285454E0
5.472841263E-1,-7.661445439E-2,1.149216816E-1,9.805285454E0
5.482940674E-1,-1.532289088E-1,3.830722719E-2,9.805346489E0
5.492901802E-1,-1.532289088E-1,7.661445439E-2,9.805346489E0
5.503320694E-1,-1.532289088E-1,3.830722719E-2,9.805346489E0
5.512900352E-1,-1.532289088E-1,7.661445439E-2,9.805346489E0
5.523102283E-1,-1.532289088E-1,3.830722719E-2,9.805346489E0
5.533010960E-1,-1.532289088E-1,7.661445439E-2,9.805346489E0
5.543282032E-1,-1.532289088E-1,3.830722719E-2,9.805346489E0
5.553362370E-1,-1.532289088E-1,7.661445439E-2,9.805346489E0
5.562920570E-1,-1.532289088E-1,3.830722719E-2,9.805346489E0
5.573031902E-1,-1.532289088E-1,7.661445439E-2,9.805346489E0
5.582962036E-1,-1.149216816E-1,1.149216816E-1,9.805349350E0
5.592973232E-1,-1.149216816E-1,1.532289088E-1,9.805349350E0
5.603182316E-1,-1.149216816E-1,1.149216816E-1,9.805349350E0
5.612821579E-1,-1.149216816E-1,1.532289088E-1,9.805349350E0
5.622701645E-1,-1.149216816E-1,1.149216816E-1,9.805349350E0
5.632791519E-1,-1.149216816E-1,1.532289088E-1,9.805349350E0
5.642781258E-1,-1.149216816E-1,1.149216816E-1,9.805349350E0
5.653400421E-1,-1.149216816E-1,1.532289088E-1,9.805349350E0
5.663251877E-1,-1.149216816E-1,1.149216816E-1,9.805349350E0
5.672862530E-1,-1.149216816E-1,1.532289088E-1,9.805349350E0
5.682802200E-1,-7.661445439E-2,7.661445439E-2,9.805671692E0
5.693132877E-1,-7.661445439E-2,1.149216816E-1,9.805671692E0
5.702931881E-1,-7.661445439E-2,7.661445439E-2,9.805671692E0
5.712752342E-1,-7.661445439E-2,1.149216816E-1,9.805671692E0
5.722692013E-1,-7.661445439E-2,7.661445439E-2,9.805671692E0
5.732991695E-1,-7.661445439E-2,1.149216816E-1,9.805671692E0
5.743191242E-1,-7.661445439E-2,7.661445439E-2,9.805671692E0
5.753071308E-1,-7.661445439E-2,1.149216816E-1,9.805671692E0
5.763139725E-1,-7.661445439E-2,7.661445439E-2,9.805671692E0
5.772981644E-1,-7.661445439E-2,1.149216816E-1,9.805671692E0
5.782871246E-1,-1.149216816E-1,7.661445439E-2,9.805676460E0
5.792851448E-1,-1.149216816E-1,1.149216816E-1,9.805676460E0
5.802803040E-1,-1.149216816E-1,7.661445439E-2,9.805676460E0
5.813252926E-1,-1.149216816E-1,1.149216816E-1,9.805676460E0
5.822870731E-1,-1.149216816E-1,7.661445439E-2,9.805676460E0
5.832941532E-1,-1.149216816E-1,1.149216816E-1,9.805676460E0
5.842893124E-1,-1.149216816E-1,7.661445439E-2,9.805676460E0
5.853252411E-1,-1.149216816E-1,1.149216816E-1,9.805676460E0
5.863020420E-1,-1.149216816E-1,7.661445439E-2,9.805676460E0
5.872993469E-1,-1.149216816E-1,1.149216816E-1,9.805676460E0
5.882930756E-1,-7.661445439E-2,7.661445439E-2,9.805839539E0
5.892741680E-1,-7.661445439E-2,1.149216816E-1,9.805839539E0
5.903291702E-1,-7.661445439E-2,7.661445439E-2,9.805839539E0
5.914289951E-1,-7.661445439E-2,1.149216816E-1,9.805839539E0
5.923349857E-1,-7.661445439E-2,7.661445439E-2,9.805839539E0
5.933651924E-1,-7.661445439E-2,1.149216816E-1,9.805839539E0
5.942931175E-1,-7.661445439E-2,7.661445439E-2,9.805839539E0
5.952820778E-1,-7.661445439E-2,1.149216816E-1,9.805839539E0
5.962982178E-1,-7.661445439E-2,7.661445439E-2,9.805839539E0
5.973153114E-1,-7.661445439E-2,1.149216816E-1,9.805839539E0
5.983221531E-1,-1.149216816E-1,3.830722719E-2,9.805908203E0
5.993101597E-1,-1.149216816E-1,7.661445439E-2,9.805908203E0
6.003322601E-1,-1.149216816E-1,3.830722719E-2,9.805908203E0
6.012780666E-1,-1.149216816E-1,7.661445439E-2,9.805908203E0
6.022801399E-1,-1.149216816E-1,3.830722719E-2,9.805908203E0
6.032741070E-1,-1.149216816E-1,7.661445439E-2,9.805908203E0
6.042962074E-1,-1.149216816E-1,3.830722719E-2,9.805908203E0
6.053042412E-1,-1.149216816E-1,7.661445439E-2,9.805908203E0
6.062769890E-1,-1.149216816E-1,3.830722719E-2,9.805908203E0
6.072800159E-1,-1.149216816E-1,7.661445439E-2,9.805908203E0
6.082851887E-1,-1.915361285E-1,0.000000000E0,9.805616379E0
6.093161106E-1,-1.915361285E-1,3.830722719E-2,9.805616379E0
6.102862358E-1,-1.915361285E-1,0.000000000E0,9.805616379E0
6.113612652E-1,-1.915361285E-1,3.830722719E-2,9.805616379E0
6.122703552E-1,-1.915361285E-1,0.000000000E0,9.805616379E0
6.133081913E-1,-1.915361285E-1,3.830722719E-2,9.805616379E0
6.142899990E-1,-1.915361285E-1,0.000000000E0,9.805616379E0
6.152982712E-1,-1.915361285E-1,3.830722719E-2,9.805616379E0
6.162872314E-1,-1.915361285E-1,0.000000000E0,9.805616379E0
6.172833443E-1,-1.915361285E-1,3.830722719E-2,9.805616379E0
6.183011532E-1,-1.532289088E-1,7.661445439E-2,9.805442810E0
6.192862988E-1,-1.532289088E-1,1.149216816E-1,9.805442810E0
6.202931404E-1,-1.532289088E-1,7.661445439E-2,9.805442810E0
6.212751865E-1,-1.532289088E-1,1.149216816E-1,9.805442810E0
6.223220825E-1,-1.532289088E-1,7.661445439E-2,9.805442810E0
6.233110428E-1,-1.532289088E-1,1.149216816E-1,9.805442810E0
6.243240833E-1,-1.532289088E-1,7.661445439E-2,9.805442810E0
6.254501343E-1,-1.532289088E-1,1.149216816E-1,9.805442810E0
6.264462471E-1,-1.532289088E-1,7.661445439E-2,9.805442810E0
6.274521351E-1,-1.915361285E-1,3.830722719E-2,9.805188179E0
6.283333302E-1,-1.915361285E-1,7.661445439E-2,9.805188179E0
6.293122768E-1,-1.915361285E-1,3.830722719E-2,9.805188179E0
6.303012371E-1,-1.915361285E-1,7.661445439E-2,9.805188179E0
6.313192844E-1,-1.915361285E-1,3.830722719E-2,9.805188179E0
6.322851181E-1,-1.915361285E-1,7.661445439E-2,9.805188179E0
6.332950592E-1,-1.915361285E-1,3.830722719E-2,9.805188179E0
6.342980862E-1,-1.915361285E-1,7.661445439E-2,9.805188179E0
6.353423595E-1,-1.915361285E-1,3.830722719E-2,9.805188179E0
6.363003254E-1,-1.915361285E-1,7.661445439E-2,9.805188179E0
6.373169422E-1,-3.830722719E-2,1.149216816E-1,9.805663109E0
6.382801533E-1,-3.830722719E-2,1.532289088E-1,9.805663109E0
6.392772198E-1,-3.830722719E-2,1.149216816E-1,9.805663109E0
6.402950287E-1,-3.830722719E-2,1.532289088E-1,9.805663109E0
6.412942410E-1,-3.830722719E-2,1.149216816E-1,9.805663109E0
6.423079967E-1,-3.830722719E-2,1.532289088E-1,9.805663109E0
6.433072090E-1,-3.830722719E-2,1.149216816E-1,9.805663109E0
6.442651749E-1,-3.830722719E-2,1.532289088E-1,9.805663109E0
6.452701092E-1,-3.830722719E-2,1.149216816E-1,9.805663109E0
6.462790966E-1,-3.830722719E-2,1.532289088E-1,9.805663109E0
6.472961903E-1,-1.532289088E-1,7.661445439E-2,9.805484772E0
6.482801437E-1,-1.532289088E-1,1.149216816E-1,9.805484772E0
6.492671967E-1,-1.532289088E-1,7.661445439E-2,9.805484772E0
6.503221989E-1,-1.532289088E-1,1.149216816E-1,9.805484772E0
6.512920856E-1,-1.532289088E-1,7.661445439E-2,9.805484772E0
6.522850990E-1,-1.532289088E-1,1.149216816E-1,9.805484772E0
6.532933712E-1,-1.532289088E-1,7.661445439E-2,9.805484772E0
6.543371677E-1,-1.532289088E-1,1.149216816E-1,9.805484772E0
6.552851200E-1,-1.532289088E-1,7.661445439E-2,9.805484772E0
6.562831402E-1,-1.532289088E-1,1.149216816E-1,9.805484772E0
6.573042870E-1,-1.915361285E-1,1.532289088E-1,9.805484772E0
6.583051682E-1,-1.915361285E-1,1.915361285E-1,9.805484772E0
6.593329906E-1,-1.915361285E-1,1.532289088E-1,9.805484772E0
6.603951454E-1,-1.915361285E-1,1.915361285E-1,9.805484772E0
6.613571644E-1,-1.915361285E-1,1.532289088E-1,9.805484772E0
6.623141766E-1,-1.915361285E-1,1.915361285E-1,9.805484772E0
6.632952690E-1,-1.915361285E-1,1.532289088E-1,9.805484772E0
6.643092632E-1,-1.915361285E-1,1.915361285E-1,9.805484772E0
6.653220654E-1,-1.915361285E-1,1.532289088E-1,9.805484772E0
6.662759781E-1,-1.915361285E-1,1.915361285E-1,9.805484772E0
6.672899723E-1,-1.532289088E-1,7.661445439E-2,9.805364609E0
6.682929993E-1,-1.532289088E-1,1.149216816E-1,9.805364609E0
6.692891121E-1,-1.532289088E-1,7.661445439E-2,9.805364609E0
6.703112125E-1,-1.532289088E-1,1.149216816E-1,9.805364609E0
6.712751389E-1,-1.532289088E-1,7.661445439E-2,9.805364609E0
6.722762585E-1,-1.532289088E-1,1.149216816E-1,9.805364609E0
6.733071804E-1,-1.532289088E-1,7.661445439E-2,9.805364609E0
6.743080616E-1,-1.532289088E-1,1.149216816E-1,9.805364609E0
6.752862930E-1,-1.532289088E-1,7.661445439E-2,9.805364609E0
6.762640476E-1,-1.532289088E-1,1.149216816E-1,9.805364609E0
6.772840023E-1,-1.149216816E-1,1.532289088E-1,9.805150986E0
6.782941818E-1,-1.149216816E-1,1.915361285E-1,9.805150986E0
6.792993546E-1,-1.149216816E-1,1.532289088E-1,9.805150986E0
6.802771091E-1,-1.149216816E-1,1.915361285E-1,9.805150986E0
6.812629700E-1,-1.149216816E-1,1.532289088E-1,9.805150986E0
6.822922230E-1,-1.149216816E-1,1.915361285E-1,9.805150986E0
6.833591461E-1,-1.149216816E-1,1.532289088E-1,9.805150986E0
6.843223572E-1,-1.149216816E-1,1.915361285E-1,9.805150986E0
6.853241920E-1,-1.149216816E-1,1.532289088E-1,9.805150986E0
6.863012314E-1,-1.149216816E-1,1.915361285E-1,9.805150986E0
6.872673035E-1,-1.149216816E-1,7.661445439E-2,9.805150986E0
6.883060932E-1,-1.149216816E-1,1.149216816E-1,9.805150986E0
6.893441677E-1,-1.149216816E-1,7.661445439E-2,9.805150986E0
6.903362274E-1,-1.149216816E-1,1.149216816E-1,9.805150986E0
6.912982464E-1,-1.149216816E-1,7.661445439E-2,9.805150986E0
6.923100948E-1,-1.149216816E-1,1.149216816E-1,9.805150986E0
6.933751106E-1,-1.149216816E-1,7.661445439E-2,9.805150986E0
6.943001747E-1,-1.149216816E-1,1.149216816E-1,9.805150986E0
6.952900887E-1,-1.149216816E-1,7.661445439E-2,9.805150986E0
6.963140965E-1,-1.149216816E-1,1.149216816E-1,9.805150986E0
6.972870827E-1,-1.149216816E-1,7.661445439E-2,9.805326462E0
6.983420849E-1,-1.149216816E-1,1.149216816E-1,9.805326462E0
6.992762089E-1,-1.149216816E-1,7.661445439E-2,9.805326462E0
7.003290653E-1,-1.149216816E-1,1.149216816E-1,9.805326462E0
7.013041973E-1,-1.149216816E-1,7.661445439E-2,9.805326462E0
7.022843361E-1,-1.149216816E-1,1.149216816E-1,9.805326462E0
7.032752037E-1,-1.149216816E-1,7.661445439E-2,9.805326462E0
7.042829990E-1,-1.149216816E-1,1.149216816E-1,9.805326462E0
7.053110600E-1,-1.149216816E-1,7.661445439E-2,9.805326462E0
7.063043118E-1,-1.149216816E-1,1.149216816E-1,9.805326462E0
7.073493004E-1,-1.149216816E-1,7.661445439E-2,9.805408478E0
7.082991600E-1,-1.149216816E-1,1.149216816E-1,9.805408478E0
7.092981339E-1,-1.149216816E-1,7.661445439E-2,9.805408478E0
7.103073597E-1,-1.149216816E-1,1.149216816E-1,9.805408478E0
7.113020420E-1,-1.149216816E-1,7.661445439E-2,9.805408478E0
7.123281956E-1,-1.149216816E-1,1.149216816E-1,9.805408478E0
7.132771015E-1,-1.149216816E-1,7.661445439E-2,9.805408478E0
7.142901421E-1,-1.149216816E-1,1.149216816E-1,9.805408478E0
7.152671814E-1,-1.149216816E-1,7.661445439E-2,9.805408478E0
7.162611485E-1,-1.149216816E-1,1.149216816E-1,9.805408478E0
7.173120975E-1,-1.149216816E-1,7.661445439E-2,9.805449486E0
7.183032036E-1,-1.149216816E-1,1.149216816E-1,9.805449486E0
7.193791866E-1,-1.149216816E-1,7.661445439E-2,9.805449486E0
7.203071117E-1,-1.149216816E-1,1.149216816E-1,9.805449486E0
7.212650776E-1,-1.149216816E-1,7.661445439E-2,9.805449486E0
7.222790718E-1,-1.149216816E-1,1.149216816E-1,9.805449486E0
7.233870029E-1,-1.149216816E-1,7.661445439E-2,9.805449486E0
7.242891788E-1,-1.149216816E-1,1.149216816E-1,9.805449486E0
7.254362106E-1,-1.149216816E-1,7.661445439E-2,9.805449486E0
7.263052464E-1,-1.915361285E-1,7.661445439E-2,9.805124283E0
7.272810936E-1,-1.915361285E-1,1.149216816E-1,9.805124283E0
7.282693386E-1,-1.915361285E-1,7.661445439E-2,9.805124283E0
7.293100357E-1,-1.915361285E-1,1.149216816E-1,9.805124283E0
7.302889824E-1,-1.915361285E-1,7.661445439E-2,9.805124283E0
7.313623428E-1,-1.915361285E-1,1.149216816E-1,9.805124283E0
7.323982716E-1,-1.915361285E-1,7.661445439E-2,9.805124283E0
7.332911491E-1,-1.915361285E-1,1.149216816E-1,9.805124283E0
7.344591618E-1,-1.915361285E-1,7.661445439E-2,9.805124283E0
7.352931499E-1,-1.915361285E-1,1.149216816E-1,9.805124283E0
7.363631725E-1,-1.915361285E-1,3.830722719E-2,9.805261612E0
7.372980118E-1,-1.915361285E-1,7.661445439E-2,9.805261612E0
7.384910583E-1,-1.915361285E-1,3.830722719E-2,9.805261612E0
7.394492626E-1,-1.915361285E-1,7.661445439E-2,9.805261612E0
7.402939796E-1,-1.915361285E-1,3.830722719E-2,9.805261612E0
7.412791252E-1,-1.915361285E-1,7.661445439E-2,9.805261612E0
7.423381805E-1,-1.915361285E-1,3.830722719E-2,9.805261612E0
7.433030605E-1,-1.915361285E-1,7.661445439E-2,9.805261612E0
7.444000244E-1,-1.915361285E-1,3.830722719E-2,9.805261612E0
7.454261780E-1,-1.915361285E-1,7.661445439E-2,9.805261612E0
7.462952137E-1,-1.532289088E-1,7.661445439E-2,9.805214882E0
7.472789288E-1,-1.532289088E-1,1.149216816E-1,9.805214882E0
7.482771873E-1,-1.532289088E-1,7.661445439E-2,9.805214882E0
7.493071556E-1,-1.532289088E-1,1.149216816E-1,9.805214882E0
7.503273487E-1,-1.532289088E-1,7.661445439E-2,9.805214882E0
7.513980865E-1,-1.532289088E-1,1.149216816E-1,9.805214882E0
7.523212433E-1,-1.532289088E-1,7.661445439E-2,9.805214882E0
7.533180714E-1,-1.532289088E-1,1.149216816E-1,9.805214882E0
7.543163300E-1,-1.532289088E-1,7.661445439E-2,9.805214882E0
7.553212643E-1,-1.532289088E-1,1.149216816E-1,9.805214882E0
7.564551830E-1,-1.915361285E-1,7.661445439E-2,9.804943085E0
7.572951317E-1,-1.915361285E-1,1.149216816E-1,9.804943085E0
7.584710121E-1,-1.915361285E-1,7.661445439E-2,9.804943085E0
7.593021393E-1,-1.915361285E-1,1.149216816E-1,9.804943085E0
7.604141235E-1,-1.915361285E-1,7.661445439E-2,9.804943085E0
7.613122463E-1,-1.915361285E-1,1.149216816E-1,9.804943085E0
7.624442577E-1,-1.915361285E-1,7.661445439E-2,9.804943085E0
7.632820606E-1,-1.915361285E-1,1.149216816E-1,9.804943085E0
7.644171715E-1,-1.915361285E-1,7.661445439E-2,9.804943085E0
7.654752731E-1,-1.915361285E-1,1.149216816E-1,9.804943085E0
7.662570477E-1,-1.149216816E-1,1.532289088E-1,9.804934502E0
7.674131393E-1,-1.149216816E-1,1.915361285E-1,9.804934502E0
7.683312893E-1,-1.149216816E-1,1.532289088E-1,9.804934502E0
7.693562508E-1,-1.149216816E-1,1.915361285E-1,9.804934502E0
7.703251839E-1,-1.149216816E-1,1.532289088E-1,9.804934502E0
7.712740898E-1,-1.149216816E-1,1.915361285E-1,9.804934502E0
7.723121643E-1,-1.149216816E-1,1.532289088E-1,9.804934502E0
7.733161449E-1,-1.149216816E-1,1.915361285E-1,9.804934502E0
7.742862701E-1,-1.149216816E-1,1.532289088E-1,9.804934502E0
7.753040791E-1,-1.149216816E-1,1.915361285E-1,9.804934502E0
7.762951851E-1,-1.532289088E-1,3.830722719E-2,9.805205345E0
7.772812843E-1,-1.532289088E-1,7.661445439E-2,9.805205345E0
7.782962322E-1,-1.532289088E-1,3.830722719E-2,9.805205345E0
7.794520855E-1,-1.532289088E-1,7.661445439E-2,9.805205345E0
7.803730965E-1,-1.532289088E-1,3.830722719E-2,9.805205345E0
7.813081741E-1,-1.532289088E-1,7.661445439E-2,9.805205345E0
7.824242115E-1,-1.532289088E-1,3.830722719E-2,9.805205345E0
7.833061218E-1,-1.532289088E-1,7.661445439E-2,9.805205345E0
7.843751907E-1,-1.532289088E-1,3.830722719E-2,9.805205345E0
7.854280472E-1,-1.532289088E-1,7.661445439E-2,9.805205345E0
7.862880230E-1,-1.532289088E-1,7.661445439E-2,9.805205345E0
7.873692513E-1,-1.532289088E-1,1.149216816E-1,9.805205345E0
7.883212566E-1,-1.532289088E-1,7.661445439E-2,9.805205345E0
7.892801762E-1,-1.532289088E-1,1.149216816E-1,9.805205345E0
7.902841568E-1,-1.532289088E-1,7.661445439E-2,9.805205345E0
7.912631035E-1,-1.532289088E-1,1.149216816E-1,9.805205345E0
7.923061848E-1,-1.532289088E-1,7.661445439E-2,9.805205345E0
7.932713032E-1,-1.532289088E-1,1.149216816E-1,9.805205345E0
7.944149971E-1,-1.532289088E-1,7.661445439E-2,9.805205345E0
7.952971458E-1,-1.532289088E-1,1.149216816E-1,9.805205345E0
7.964630127E-1,-1.532289088E-1,1.149216816E-1,9.805055618E0
7.972781658E-1,-1.532289088E-1,1.532289088E-1,9.805055618E0
7.984321117E-1,-1.532289088E-1,1.149216816E-1,9.805055618E0
7.993202209E-1,-1.532289088E-1,1.532289088E-1,9.805055618E0
8.002803326E-1,-1.532289088E-1,1.149216816E-1,9.805055618E0
8.013310432E-1,-1.532289088E-1,1.532289088E-1,9.805055618E0
8.023190498E-1,-1.532289088E-1,1.149216816E-1,9.805055618E0
8.032872677E-1,-1.532289088E-1,1.532289088E-1,9.805055618E0
8.042981625E-1,-1.532289088E-1,1.149216816E-1,9.805055618E0
8.052740097E-1,-1.532289088E-1,1.532289088E-1,9.805055618E0
8.062951565E-1,-1.532289088E-1,3.830722719E-2,9.805264473E0
8.073000908E-1,-1.532289088E-1,7.661445439E-2,9.805264473E0
8.082902431E-1,-1.532289088E-1,3.830722719E-2,9.805264473E0
8.093152046E-1,-1.532289088E-1,7.661445439E-2,9.805264473E0
8.104789257E-1,-1.532289088E-1,3.830722719E-2,9.805264473E0
8.113212585E-1,-1.532289088E-1,7.661445439E-2,9.805264473E0
8.123221397E-1,-1.532289088E-1,3.830722719E-2,9.805264473E0
8.133070469E-1,-1.532289088E-1,7.661445439E-2,9.805264473E0
8.142962456E-1,-1.532289088E-1,3.830722719E-2,9.805264473E0
8.153922558E-1,-1.532289088E-1,7.661445439E-2,9.805264473E0
8.162891865E-1,-1.532289088E-1,3.830722719E-2,9.805352211E0
8.172950745E-1,-1.532289088E-1,7.661445439E-2,9.805352211E0
8.183860779E-1,-1.532289088E-1,3.830722719E-2,9.805352211E0
8.192982674E-1,-1.532289088E-1,7.661445439E-2,9.805352211E0
8.202881813E-1,-1.532289088E-1,3.830722719E-2,9.805352211E0
8.212871552E-1,-1.532289088E-1,7.661445439E-2,9.805352211E0
8.223199844E-1,-1.532289088E-1,3.830722719E-2,9.805352211E0
8.235192299E-1,-1.532289088E-1,7.661445439E-2,9.805352211E0
8.243491650E-1,-1.532289088E-1,3.830722719E-2,9.805352211E0
8.253042698E-1,-1.532289088E-1,7.661445439E-2,9.805352211E0
8.264641762E-1,-1.149216816E-1,7.661445439E-2,9.805486679E0
8.273131847E-1,-1.149216816E-1,1.149216816E-1,9.805486679E0
8.283190727E-1,-1.149216816E-1,7.661445439E-2,9.805486679E0
8.293910027E-1,-1.149216816E-1,1.149216816E-1,9.805486679E0
8.304500580E-1,-1.149216816E-1,7.661445439E-2,9.805486679E0
8.312783241E-1,-1.149216816E-1,1.149216816E-1,9.805486679E0
8.324491978E-1,-1.149216816E-1,7.661445439E-2,9.805486679E0
8.334240913E-1,-1.149216816E-1,1.149216816E-1,9.805486679E0
8.342990875E-1,-1.149216816E-1,7.661445439E-2,9.805486679E0
8.352971077E-1,-1.532289088E-1,1.149216816E-1,9.805222511E0
8.362991810E-1,-1.532289088E-1,1.532289088E-1,9.805222511E0
8.373479843E-1,-1.532289088E-1,1.149216816E-1,9.805222511E0
8.382961750E-1,-1.532289088E-1,1.532289088E-1,9.805222511E0
8.393220901E-1,-1.532289088E-1,1.149216816E-1,9.805222511E0
8.403141499E-1,-1.532289088E-1,1.532289088E-1,9.805222511E0
8.412959576E-1,-1.532289088E-1,1.149216816E-1,9.805222511E0
8.423211575E-1,-1.532289088E-1,1.532289088E-1,9.805222511E0
8.433129787E-1,-1.532289088E-1,1.149216816E-1,9.805222511E0
8.443012238E-1,-1.532289088E-1,1.532289088E-1,9.805222511E0
8.452792168E-1,-1.532289088E-1,7.661445439E-2,9.805262566E0
8.462979794E-1,-1.532289088E-1,1.149216816E-1,9.805262566E0
8.474280834E-1,-1.532289088E-1,7.661445439E-2,9.805262566E0
8.483500481E-1,-1.532289088E-1,1.149216816E-1,9.805262566E0
8.493111134E-1,-1.532289088E-1,7.661445439E-2,9.805262566E0
8.502891064E-1,-1.532289088E-1,1.149216816E-1,9.805262566E0
8.513040543E-1,-1.532289088E-1,7.661445439E-2,9.805262566E0
8.524832726E-1,-1.532289088E-1,1.149216816E-1,9.805262566E0
8.533902168E-1,-1.532289088E-1,7.661445439E-2,9.805262566E0
8.542990685E-1,-1.532289088E-1,1.149216816E-1,9.805262566E0
8.552772999E-1,-1.915361285E-1,1.149216816E-1,9.804841042E0
8.563222885E-1,-1.915361285E-1,1.532289088E-1,9.804841042E0
8.572943211E-1,-1.915361285E-1,1.149216816E-1,9.804841042E0
8.583121300E-1,-1.915361285E-1,1.532289088E-1,9.804841042E0
8.592751026E-1,-1.915361285E-1,1.149216816E-1,9.804841042E0
8.602592945E-1,-1.915361285E-1,1.532289088E-1,9.804841042E0
8.612780571E-1,-1.915361285E-1,1.149216816E-1,9.804841042E0
8.622951508E-1,-1.915361285E-1,1.532289088E-1,9.804841042E0
8.632831573E-1,-1.915361285E-1,1.149216816E-1,9.804841042E0
8.642930984E-1,-1.915361285E-1,1.532289088E-1,9.804841042E0
8.653881550E-1,-1.149216816E-1,1.915361285E-1,9.804632187E0
8.662791252E-1,-1.149216816E-1,2.298433632E-1,9.804632187E0
8.672831059E-1,-1.149216816E-1,1.915361285E-1,9.804632187E0
8.682913780E-1,-1.149216816E-1,2.298433632E-1,9.804632187E0
8.693032265E-1,-1.149216816E-1,1.915361285E-1,9.804632187E0
8.703052998E-1,-1.149216816E-1,2.298433632E-1,9.804632187E0
8.712799549E-1,-1.149216816E-1,1.915361285E-1,9.804632187E0
8.722982407E-1,-1.149216816E-1,2.298433632E-1,9.804632187E0
8.733601570E-1,-1.149216816E-1,1.915361285E-1,9.804632187E0
8.742930889E-1,-1.149216816E-1,2.298433632E-1,9.804632187E0
8.752872944E-1,-2.298433632E-1,1.149216816E-1,9.804223061E0
8.762881756E-1,-2.298433632E-1,1.532289088E-1,9.804223061E0
8.773152828E-1,-2.298433632E-1,1.149216816E-1,9.804223061E0
8.783111572E-1,-2.298433632E-1,1.532289088E-1,9.804223061E0
8.793213367E-1,-2.298433632E-1,1.149216816E-1,9.804223061E0
8.803203106E-1,-2.298433632E-1,1.532289088E-1,9.804223061E0
8.813111782E-1,-2.298433632E-1,1.149216816E-1,9.804223061E0
8.823142052E-1,-2.298433632E-1,1.532289088E-1,9.804223061E0
8.832931519E-1,-2.298433632E-1,1.149216816E-1,9.804223061E0
8.842961788E-1,-2.298433632E-1,1.532289088E-1,9.804223061E0
8.853111267E-1,-1.915361285E-1,7.661445439E-2,9.804383278E0
8.863420486E-1,-1.915361285E-1,1.149216816E-1,9.804383278E0
8.874180317E-1,-1.915361285E-1,7.661445439E-2,9.804383278E0
8.883681297E-1,-1.915361285E-1,1.149216816E-1,9.804383278E0
8.894302845E-1,-1.915361285E-1,7.661445439E-2,9.804383278E0
8.903222084E-1,-1.915361285E-1,1.149216816E-1,9.804383278E0
8.918480873E-1,-1.915361285E-1,7.661445439E-2,9.804383278E0
8.922812939E-1,-1.915361285E-1,1.149216816E-1,9.804383278E0
8.934550285E-1,-1.915361285E-1,7.661445439E-2,9.804383278E0
8.943090439E-1,-1.915361285E-1,1.149216816E-1,9.804383278E0
8.953711987E-1,-1.149216816E-1,1.149216816E-1,9.804782867E0
8.963181973E-1,-1.149216816E-1,1.532289088E-1,9.804782867E0
8.972702026E-1,-1.149216816E-1,1.149216816E-1,9.804782867E0
8.982722759E-1,-1.149216816E-1,1.532289088E-1,9.804782867E0
8.992910385E-1,-1.149216816E-1,1.149216816E-1,9.804782867E0
9.003081322E-1,-1.149216816E-1,1.532289088E-1,9.804782867E0
9.012970924E-1,-1.149216816E-1,1.149216816E-1,9.804782867E0
9.022781849E-1,-1.149216816E-1,1.532289088E-1,9.804782867E0
9.033041000E-1,-1.149216816E-1,1.149216816E-1,9.804782867E0
9.043080807E-1,-1.149216816E-1,1.532289088E-1,9.804782867E0
9.053380489E-1,-1.149216816E-1,1.149216816E-1,9.804757118E0
9.063041210E-1,-1.149216816E-1,1.532289088E-1,9.804757118E0
9.072983265E-1,-1.149216816E-1,1.149216816E-1,9.804757118E0
9.083132744E-1,-1.149216816E-1,1.532289088E-1,9.804757118E0
9.092822075E-1,-1.149216816E-1,1.149216816E-1,9.804757118E0
9.103462696E-1,-1.149216816E-1,1.532289088E-1,9.804757118E0
9.113011360E-1,-1.149216816E-1,1.149216816E-1,9.804757118E0
9.123091698E-1,-1.149216816E-1,1.532289088E-1,9.804757118E0
9.133181572E-1,-1.149216816E-1,1.149216816E-1,9.804757118E0
9.143142700E-1,-1.149216816E-1,1.532289088E-1,9.804757118E0
9.152951241E-1,-2.298433632E-1,7.661445439E-2,9.804433823E0
9.163579941E-1,-2.298433632E-1,1.149216816E-1,9.804433823E0
9.173111916E-1,-2.298433632E-1,7.661445439E-2,9.804433823E0
9.183101654E-1,-2.298433632E-1,1.149216816E-1,9.804433823E0
9.194703102E-1,-2.298433632E-1,7.661445439E-2,9.804433823E0
9.203171730E-1,-2.298433632E-1,1.149216816E-1,9.804433823E0
9.213232994E-1,-2.298433632E-1,7.661445439E-2,9.804433823E0
9.223232269E-1,-2.298433632E-1,1.149216816E-1,9.804433823E0
9.232630730E-1,-2.298433632E-1,7.661445439E-2,9.804433823E0
9.243521690E-1,-2.298433632E-1,1.149216816E-1,9.804433823E0
9.253280163E-1,-1.915361285E-1,0.000000000E0,9.804710388E0
9.263241291E-1,-1.915361285E-1,3.830722719E-2,9.804710388E0
9.272720814E-1,-1.915361285E-1,0.000000000E0,9.804710388E0
9.288673401E-1,-1.915361285E-1,3.830722719E-2,9.804710388E0
9.292662144E-1,-1.915361285E-1,0.000000000E0,9.804710388E0
9.302833080E-1,-1.915361285E-1,3.830722719E-2,9.804710388E0
9.312772751E-1,-1.915361285E-1,0.000000000E0,9.804710388E0
9.322562218E-1,-1.915361285E-1,3.830722719E-2,9.804710388E0
9.332840443E-1,-1.915361285E-1,0.000000000E0,9.804710388E0
9.343020916E-1,-1.532289088E-1,1.149216816E-1,9.804710388E0
9.352951050E-1,-1.532289088E-1,1.532289088E-1,9.804710388E0
9.362912178E-1,-1.532289088E-1,1.149216816E-1,9.804710388E0
9.373002052E-1,-1.532289088E-1,1.532289088E-1,9.804710388E0
9.383041859E-1,-1.532289088E-1,1.149216816E-1,9.804710388E0
9.392921925E-1,-1.532289088E-1,1.532289088E-1,9.804710388E0
9.403202534E-1,-1.532289088E-1,1.149216816E-1,9.804710388E0
9.413461685E-1,-1.532289088E-1,1.532289088E-1,9.804710388E0
9.423341751E-1,-1.532289088E-1,1.149216816E-1,9.804710388E0
9.432992935E-1,-1.532289088E-1,1.532289088E-1,9.804710388E0
9.443039894E-1,-1.532289088E-1,1.149216816E-1,9.804770470E0
9.453542233E-1,-1.532289088E-1,1.532289088E-1,9.804770470E0
9.462943077E-1,-1.532289088E-1,1.149216816E-1,9.804770470E0
9.473121166E-1,-1.532289088E-1,1.532289088E-1,9.804770470E0
9.483480453E-1,-1.532289088E-1,1.149216816E-1,9.804770470E0
9.493212700E-1,-1.532289088E-1,1.532289088E-1,9.804770470E0
9.502990246E-1,-1.532289088E-1,1.149216816E-1,9.804770470E0
9.512772560E-1,-1.532289088E-1,1.532289088E-1,9.804770470E0
9.523689747E-1,-1.532289088E-1,1.149216816E-1,9.804770470E0
9.533972740E-1,-1.532289088E-1,1.532289088E-1,9.804770470E0
9.543731213E-1,-1.532289088E-1,3.830722719E-2,9.804902077E0
9.558932781E-1,-1.532289088E-1,7.661445439E-2,9.804902077E0
9.562821388E-1,-1.532289088E-1,3.830722719E-2,9.804902077E0
9.573202133E-1,-1.532289088E-1,7.661445439E-2,9.804902077E0
9.583079815E-1,-1.532289088E-1,3.830722719E-2,9.804902077E0
9.593241215E-1,-1.532289088E-1,7.661445439E-2,9.804902077E0
9.603180885E-1,-1.532289088E-1,3.830722719E-2,9.804902077E0
9.617731571E-1,-1.532289088E-1,7.661445439E-2,9.804902077E0
9.622831345E-1,-1.532289088E-1,3.830722719E-2,9.804902077E0
9.633450508E-1,-1.532289088E-1,7.661445439E-2,9.804902077E0
9.643132687E-1,-1.915361285E-1,7.661445439E-2,9.804742813E0
9.652891159E-1,-1.915361285E-1,1.149216816E-1,9.804742813E0
9.662652016E-1,-1.915361285E-1,7.661445439E-2,9.804742813E0
9.672892094E-1,-1.915361285E-1,1.149216816E-1,9.804742813E0
9.682850838E-1,-1.915361285E-1,7.661445439E-2,9.804742813E0
9.692990780E-1,-1.915361285E-1,1.149216816E-1,9.804742813E0
9.703142643E-1,-1.915361285E-1,7.661445439E-2,9.804742813E0
9.712851048E-1,-1.915361285E-1,1.149216816E-1,9.804742813E0
9.723103046E-1,-1.915361285E-1,7.661445439E-2,9.804742813E0
9.732739925E-1,-1.915361285E-1,1.149216816E-1,9.804742813E0
9.742980003E-1,-7.661445439E-2,7.661445439E-2,9.805356026E0
9.753141403E-1,-7.661445439E-2,1.149216816E-1,9.805356026E0
9.763653278E-1,-7.661445439E-2,7.661445439E-2,9.805356026E0
9.772961140E-1,-7.661445439E-2,1.149216816E-1,9.805356026E0
9.782891273E-1,-7.661445439E-2,7.661445439E-2,9.805356026E0
9.793093204E-1,-7.661445439E-2,1.149216816E-1,9.805356026E0
9.802870750E-1,-7.661445439E-2,7.661445439E-2,9.805356026E0
9.812982082E-1,-7.661445439E-2,1.149216816E-1,9.805356026E0
9.826300144E-1,-7.661445439E-2,7.661445439E-2,9.805356026E0
9.836230278E-1,-7.661445439E-2,1.149216816E-1,9.805356026E0
9.843170643E-1,-7.661445439E-2,7.661445439E-2,9.805341721E0
9.852902889E-1,-7.661445439E-2,1.149216816E-1,9.805341721E0
9.862751961E-1,-7.661445439E-2,7.661445439E-2,9.805341721E0
9.873101711E-1,-7.661445439E-2,1.149216816E-1,9.805341721E0
9.883050919E-1,-7.661445439E-2,7.661445439E-2,9.805341721E0
9.894349575E-1,-7.661445439E-2,1.149216816E-1,9.805341721E0
9.903361797E-1,-7.661445439E-2,7.661445439E-2,9.805341721E0
9.918181896E-1,-7.661445439E-2,1.149216816E-1,9.805341721E0
9.924392700E-1,-7.661445439E-2,7.661445439E-2,9.805341721E0
9.934642315E-1,-7.661445439E-2,1.149216816E-1,9.805341721E0
9.943101406E-1,-1.149216816E-1,7.661445439E-2,9.805473328E0
9.952883720E-1,-1.149216816E-1,1.149216816E-1,9.805473328E0
9.962761402E-1,-1.149216816E-1,7.661445439E-2,9.805473328E0
9.973862171E-1,-1.149216816E-1,1.149216816E-1,9.805473328E0
9.984242916E-1,-1.149216816E-1,7.661445439E-2,9.805473328E0
9.993970394E-1,-1.149216816E-1,1.149216816E-1,9.805473328E0
1.000272989E0,-1.149216816E-1,7.661445439E-2,9.805473328E0
1.001287222E0,-1.149216816E-1,1.149216816E-1,9.805473328E0
1.002306223E0,-1.149216816E-1,7.661445439E-2,9.805473328E0
1.003312111E0,-1.149216816E-1,1.149216816E-1,9.805473328E0
1.004311323E0,-1.532289088E-1,7.661445439E-2,9.805359840E0
1.005321264E0,-1.532289088E-1,1.149216816E-1,9.805359840E0
1.006345272E0,-1.532289088E-1,7.661445439E-2,9.805359840E0
1.007349253E0,-1.532289088E-1,1.149216816E-1,9.805359840E0
1.008289337E0,-1.532289088E-1,7.661445439E-2,9.805359840E0
1.009294987E0,-1.532289088E-1,1.149216816E-1,9.805359840E0
1.010294199E0,-1.532289088E-1,7.661445439E-2,9.805359840E0
1.011276245E0,-1.532289088E-1,1.149216816E-1,9.805359840E0
1.012283087E0,-1.532289088E-1,7.661445439E-2,9.805359840E0
1.013258219E0,-1.532289088E-1,1.149216816E-1,9.805359840E0
1.014304161E0,-1.915361285E-1,0.000000000E0,9.805264473E0
1.015304089E0,-1.915361285E-1,3.830722719E-2,9.805264473E0
1.016312361E0,-1.915361285E-1,0.000000000E0,9.805264473E0
1.017260313E0,-1.915361285E-1,3.830722719E-2,9.805264473E0
1.018275976E0,-1.915361285E-1,0.000000000E0,9.805264473E0
1.019340277E0,-1.915361285E-1,3.830722719E-2,9.805264473E0
1.020288229E0,-1.915361285E-1,0.000000000E0,9.805264473E0
1.021282196E0,-1.915361285E-1,3.830722719E-2,9.805264473E0
1.022284269E0,-1.915361285E-1,0.000000000E0,9.805264473E0
1.023290157E0,-1.915361285E-1,3.830722719E-2,9.805264473E0
1.024634123E0,-1.149216816E-1,3.830722719E-2,9.805524826E0
1.025392056E0,-1.149216816E-1,7.661445439E-2,9.805524826E0
1.026298046E0,-1.149216816E-1,3.830722719E-2,9.805524826E0
1.027360201E0,-1.149216816E-1,7.661445439E-2,9.805524826E0
1.028325081E0,-1.149216816E-1,3.830722719E-2,9.805524826E0
1.029490232E0,-1.149216816E-1,7.661445439E-2,9.805524826E0
1.030310154E0,-1.149216816E-1,3.830722719E-2,9.805524826E0
1.031310320E0,-1.149216816E-1,7.661445439E-2,9.805524826E0
1.032291174E0,-1.149216816E-1,3.830722719E-2,9.805524826E0
1.033386230E0,-1.149216816E-1,7.661445439E-2,9.805524826E0
1.034403324E0,-1.532289088E-1,3.830722719E-2,9.805472374E0
1.035297155E0,-1.532289088E-1,7.661445439E-2,9.805472374E0
1.036320210E0,-1.532289088E-1,3.830722719E-2,9.805472374E0
1.037320137E0,-1.532289088E-1,7.661445439E-2,9.805472374E0
1.038454294E0,-1.532289088E-1,3.830722719E-2,9.805472374E0
1.039326191E0,-1.532289088E-1,7.661445439E-2,9.805472374E0
1.040323973E0,-1.532289088E-1,3.830722719E-2,9.805472374E0
1.041868210E0,-1.532289088E-1,7.661445439E-2,9.805472374E0
1.042469025E0,-1.532289088E-1,3.830722719E-2,9.805472374E0
1.043291092E0,-1.532289088E-1,3.830722719E-2,9.805475235E0
1.044538975E0,-1.532289088E-1,7.661445439E-2,9.805475235E0
1.045286179E0,-1.532289088E-1,3.830722719E-2,9.805475235E0
1.046282291E0,-1.532289088E-1,7.661445439E-2,9.805475235E0
1.047282219E0,-1.532289088E-1,3.830722719E-2,9.805475235E0
1.048275232E0,-1.532289088E-1,7.661445439E-2,9.805475235E0
1.049294949E0,-1.532289088E-1,3.830722719E-2,9.805475235E0
1.050294161E0,-1.532289088E-1,7.661445439E-2,9.805475235E0
1.051276207E0,-1.532289088E-1,3.830722719E-2,9.805475235E0
1.052294016E0,-1.532289088E-1,7.661445439E-2,9.805475235E0
1.053300142E0,-1.915361285E-1,7.661445439E-2,9.805134773E0
1.054311037E0,-1.915361285E-1,1.149216816E-1,9.805134773E0
1.055307150E0,-1.915361285E-1,7.661445439E-2,9.805134773E0
1.056297064E0,-1.915361285E-1,1.149216816E-1,9.805134773E0
1.057301283E0,-1.915361285E-1,7.661445439E-2,9.805134773E0
1.058381319E0,-1.915361285E-1,1.149216816E-1,9.805134773E0
1.059302092E0,-1.915361285E-1,7.661445439E-2,9.805134773E0
1.060304165E0,-1.915361285E-1,1.149216816E-1,9.805134773E0
1.061272144E0,-1.915361285E-1,7.661445439E-2,9.805134773E0
1.062382936E0,-1.915361285E-1,1.149216816E-1,9.805134773E0
1.063306093E0,-1.532289088E-1,0.000000000E0,9.805300713E0
1.064322233E0,-1.532289088E-1,3.830722719E-2,9.805300713E0
1.065347195E0,-1.532289088E-1,0.000000000E0,9.805300713E0
1.066293240E0,-1.532289088E-1,3.830722719E-2,9.805300713E0
1.067319155E0,-1.532289088E-1,0.000000000E0,9.805300713E0
1.068292141E0,-1.532289088E-1,3.830722719E-2,9.805300713E0
1.069308043E0,-1.532289088E-1,0.000000000E0,9.805300713E0
1.070291042E0,-1.532289088E-1,3.830722719E-2,9.805300713E0
1.071990252E0,-1.532289088E-1,0.000000000E0,9.805300713E0
1.072359085E0,-1.532289088E-1,3.830722719E-2,9.805300713E0
1.073300123E0,-1.915361285E-1,1.532289088E-1,9.804811478E0
1.074265242E0,-1.915361285E-1,1.915361285E-1,9.804811478E0
1.075285196E0,-1.915361285E-1,1.532289088E-1,9.804811478E0
1.076364279E0,-1.915361285E-1,1.915361285E-1,9.804811478E0
1.077274084E0,-1.915361285E-1,1.532289088E-1,9.804811478E0
1.078253269E0,-1.915361285E-1,1.915361285E-1,9.804811478E0
1.079275131E0,-1.915361285E-1,1.532289088E-1,9.804811478E0
1.080322266E0,-1.915361285E-1,1.915361285E-1,9.804811478E0
1.081305981E0,-1.915361285E-1,1.532289088E-1,9.804811478E0
1.082270145E0,-1.915361285E-1,1.915361285E-1,9.804811478E0
1.083266258E0,-1.915361285E-1,7.661445439E-2,9.804811478E0
1.084285021E0,-1.915361285E-1,1.149216816E-1,9.804811478E0
1.085263014E0,-1.915361285E-1,7.661445439E-2,9.804811478E0
1.086285353E0,-1.915361285E-1,1.149216816E-1,9.804811478E0
1.087336063E0,-1.915361285E-1,7.661445439E-2,9.804811478E0
1.088317156E0,-1.915361285E-1,1.149216816E-1,9.804811478E0
1.089333296E0,-1.915361285E-1,7.661445439E-2,9.804811478E0
1.090311050E0,-1.915361285E-1,1.149216816E-1,9.804811478E0
1.091319323E0,-1.915361285E-1,7.661445439E-2,9.804811478E0
1.092293978E0,-1.915361285E-1,1.149216816E-1,9.804811478E0
1.093307018E0,-1.532289088E-1,3.830722719E-2,9.805060387E0
1.094321012E0,-1.532289088E-1,7.661445439E-2,9.805060387E0
1.095310926E0,-1.532289088E-1,3.830722719E-2,9.805060387E0
1.096302986E0,-1.532289088E-1,7.661445439E-2,9.805060387E0
1.097335339E0,-1.532289088E-1,3.830722719E-2,9.805060387E0
1.098342180E0,-1.532289088E-1,7.661445439E-2,9.805060387E0
1.099315166E0,-1.532289088E-1,3.830722719E-2,9.805060387E0
1.100319147E0,-1.532289088E-1,7.661445439E-2,9.805060387E0
1.101312160E0,-1.532289088E-1,3.830722719E-2,9.805060387E0
1.102319956E0,-1.532289088E-1,7.661445439E-2,9.805060387E0
1.103342295E0,-1.915361285E-1,0.000000000E0,9.805025101E0
1.104294062E0,-1.915361285E-1,3.830722719E-2,9.805025101E0
1.105299234E0,-1.915361285E-1,0.000000000E0,9.805025101E0
1.106306314E0,-1.915361285E-1,3.830722719E-2,9.805025101E0
1.107497215E0,-1.915361285E-1,0.000000000E0,9.805025101E0
1.108365297E0,-1.915361285E-1,3.830722719E-2,9.805025101E0
1.109301090E0,-1.915361285E-1,0.000000000E0,9.805025101E0
1.110464096E0,-1.915361285E-1,3.830722719E-2,9.805025101E0
1.111294031E0,-1.915361285E-1,0.000000000E0,9.805025101E0
1.112297058E0,-1.915361285E-1,3.830722719E-2,9.805025101E0
1.113358974E0,-1.915361285E-1,7.661445439E-2,9.804949760E0
1.114287138E0,-1.915361285E-1,1.149216816E-1,9.804949760E0
1.115302086E0,-1.915361285E-1,7.661445439E-2,9.804949760E0
1.116297245E0,-1.915361285E-1,1.149216816E-1,9.804949760E0
1.117285967E0,-1.915361285E-1,7.661445439E-2,9.804949760E0
1.118285179E0,-1.915361285E-1,1.149216816E-1,9.804949760E0
1.119277239E0,-1.915361285E-1,7.661445439E-2,9.804949760E0
1.120300293E0,-1.915361285E-1,1.149216816E-1,9.804949760E0
1.121305227E0,-1.915361285E-1,7.661445439E-2,9.804949760E0
1.122294188E0,-1.915361285E-1,1.149216816E-1,9.804949760E0
1.123285294E0,-1.915361285E-1,1.532289088E-1,9.804653168E0
1.124307156E0,-1.915361285E-1,1.915361285E-1,9.804653168E0
1.125320196E0,-1.915361285E-1,1.532289088E-1,9.804653168E0
1.126292229E0,-1.915361285E-1,1.915361285E-1,9.804653168E0
1.127290010E0,-1.915361285E-1,1.532289088E-1,9.804653168E0
1.128409386E0,-1.915361285E-1,1.915361285E-1,9.804653168E0
1.129284143E0,-1.915361285E-1,1.532289088E-1,9.804653168E0
1.130277157E0,-1.915361285E-1,1.915361285E-1,9.804653168E0
1.131318331E0,-1.915361285E-1,1.532289088E-1,9.804653168E0
1.132313251E0,-1.915361285E-1,1.915361285E-1,9.804653168E0
1.133389235E0,-1.532289088E-1,7.661445439E-2,9.804850578E0
1.134338140E0,-1.532289088E-1,1.149216816E-1,9.804850578E0
1.135299206E0,-1.532289088E-1,7.661445439E-2,9.804850578E0
1.136696339E0,-1.532289088E-1,1.149216816E-1,9.804850578E0
1.137326241E0,-1.532289088E-1,7.661445439E-2,9.804850578E0
1.138295174E0,-1.532289088E-1,1.149216816E-1,9.804850578E0
1.139277220E0,-1.532289088E-1,7.661445439E-2,9.804850578E0
1.140257120E0,-1.532289088E-1,1.149216816E-1,9.804850578E0
1.141267061E0,-1.532289088E-1,7.661445439E-2,9.804850578E0
1.142291069E0,-1.149216816E-1,7.661445439E-2,9.805187225E0
1.143307209E0,-1.149216816E-1,1.149216816E-1,9.805187225E0
1.144377232E0,-1.149216816E-1,7.661445439E-2,9.805187225E0
1.145366192E0,-1.149216816E-1,1.149216816E-1,9.805187225E0
1.146265268E0,-1.149216816E-1,7.661445439E-2,9.805187225E0
1.147297144E0,-1.149216816E-1,1.149216816E-1,9.805187225E0
1.148274183E0,-1.149216816E-1,7.661445439E-2,9.805187225E0
1.149266005E0,-1.149216816E-1,1.149216816E-1,9.805187225E0
1.150246143E0,-1.149216816E-1,7.661445439E-2,9.805187225E0
1.151275158E0,-1.149216816E-1,1.149216816E-1,9.805187225E0
1.152304173E0,-1.149216816E-1,1.149216816E-1,9.805071831E0
1.153294325E0,-1.149216816E-1,1.532289088E-1,9.805071831E0
1.154304266E0,-1.149216816E-1,1.149216816E-1,9.805071831E0
1.155322075E0,-1.149216816E-1,1.532289088E-1,9.805071831E0
1.156297207E0,-1.149216816E-1,1.149216816E-1,9.805071831E0
1.157313108E0,-1.149216816E-1,1.532289088E-1,9.805071831E0
1.158324242E0,-1.149216816E-1,1.149216816E-1,9.805071831E0
1.159307241E0,-1.149216816E-1,1.532289088E-1,9.805071831E0
1.160317183E0,-1.149216816E-1,1.149216816E-1,9.805071831E0
1.161311150E0,-1.149216816E-1,1.532289088E-1,9.805071831E0
1.162323236E0,-1.915361285E-1,7.661445439E-2,9.804886818E0
1.163310289E0,-1.915361285E-1,1.149216816E-1,9.804886818E0
1.164323330E0,-1.915361285E-1,7.661445439E-2,9.804886818E0
1.165336370E0,-1.915361285E-1,1.149216816E-1,9.804886818E0
1.166358232E0,-1.915361285E-1,7.661445439E-2,9.804886818E0
1.167286158E0,-1.915361285E-1,1.149216816E-1,9.804886818E0
1.168361187E0,-1.915361285E-1,7.661445439E-2,9.804886818E0
1.169315338E0,-1.915361285E-1,1.149216816E-1,9.804886818E0
1.170299053E0,-1.915361285E-1,7.661445439E-2,9.804886818E0
1.171295166E0,-1.915361285E-1,1.149216816E-1,9.804886818E0
1.172342300E0,-1.532289088E-1,1.149216816E-1,9.804850578E0
1.173305988E0,-1.532289088E-1,1.532289088E-1,9.804850578E0
1.174315214E0,-1.532289088E-1,1.149216816E-1,9.804850578E0
1.175307274E0,-1.532289088E-1,1.532289088E-1,9.804850578E0
1.176320314E0,-1.532289088E-1,1.149216816E-1,9.804850578E0
1.177304268E0,-1.532289088E-1,1.532289088E-1,9.804850578E0
1.178459167E0,-1.532289088E-1,1.149216816E-1,9.804850578E0
1.179282188E0,-1.532289088E-1,1.532289088E-1,9.804850578E0
1.180298090E0,-1.532289088E-1,1.149216816E-1,9.804850578E0
1.181339025E0,-1.532289088E-1,1.532289088E-1,9.804850578E0
1.182307959E0,-1.532289088E-1,1.149216816E-1,9.804784775E0
1.183273077E0,-1.532289088E-1,1.532289088E-1,9.804784775E0
1.184268236E0,-1.532289088E-1,1.149216816E-1,9.804784775E0
1.185286999E0,-1.532289088E-1,1.532289088E-1,9.804784775E0
1.186300039E0,-1.532289088E-1,1.149216816E-1,9.804784775E0
1.187305212E0,-1.532289088E-1,1.532289088E-1,9.804784775E0
1.188318253E0,-1.532289088E-1,1.149216816E-1,9.804784775E0
1.189304352E0,-1.532289088E-1,1.532289088E-1,9.804784775E0
1.190304279E0,-1.532289088E-1,1.149216816E-1,9.804784775E0
1.191286325E0,-1.532289088E-1,1.532289088E-1,9.804784775E0
1.192293167E0,-1.532289088E-1,0.000000000E0,9.805140495E0
1.193298101E0,-1.532289088E-1,3.830722719E-2,9.805140495E0
1.194298029E0,-1.532289088E-1,0.000000000E0,9.805140495E0
1.195321321E0,-1.532289088E-1,3.830722719E-2,9.805140495E0
1.196281195E0,-1.532289088E-1,0.000000000E0,9.805140495E0
1.197283268E0,-1.532289088E-1,3.830722719E-2,9.805140495E0
1.198292255E0,-1.532289088E-1,0.000000000E0,9.805140495E0
1.199332952E0,-1.532289088E-1,3.830722719E-2,9.805140495E0
1.200340271E0,-1.532289088E-1,0.000000000E0,9.805140495E0
1.201328039E0,-1.532289088E-1,3.830722719E-2,9.805140495E0
1.202328205E0,-1.532289088E-1,7.661445439E-2,9.805105209E0
1.203335047E0,-1.532289088E-1,1.149216816E-1,9.805105209E0
1.204289198E0,-1.532289088E-1,7.661445439E-2,9.805105209E0
1.205310106E0,-1.532289088E-1,1.149216816E-1,9.805105209E0
1.206298113E0,-1.532289088E-1,7.661445439E-2,9.805105209E0
1.207409143E0,-1.532289088E-1,1.149216816E-1,9.805105209E0
1.208316088E0,-1.532289088E-1,7.661445439E-2,9.805105209E0
1.209370136E0,-1.532289088E-1,1.149216816E-1,9.805105209E0
1.210285187E0,-1.532289088E-1,7.661445439E-2,9.805105209E0
1.211339235E0,-1.532289088E-1,1.149216816E-1,9.805105209E0
1.212302208E0,-1.149216816E-1,7.661445439E-2,9.805334091E0
1.213261366E0,-1.149216816E-1,1.149216816E-1,9.805334091E0
1.214295149E0,-1.149216816E-1,7.661445439E-2,9.805334091E0
1.215299368E0,-1.149216816E-1,1.149216816E-1,9.805334091E0
1.216261148E0,-1.149216816E-1,7.661445439E-2,9.805334091E0
1.217269182E0,-1.149216816E-1,1.149216816E-1,9.805334091E0
1.218301058E0,-1.149216816E-1,7.661445439E-2,9.805334091E0
1.219290018E0,-1.149216816E-1,1.149216816E-1,9.805334091E0
1.220326185E0,-1.149216816E-1,7.661445439E-2,9.805334091E0
1.221284151E0,-1.149216816E-1,1.149216816E-1,9.805334091E0
1.222307920E0,-1.149216816E-1,0.000000000E0,9.805501938E0
1.223318100E0,-1.149216816E-1,3.830722719E-2,9.805501938E0
1.224336147E0,-1.149216816E-1,0.000000000E0,9.805501938E0
1.225407124E0,-1.149216816E-1,3.830722719E-2,9.805501938E0
1.226315260E0,-1.149216816E-1,0.000000000E0,9.805501938E0
1.227297306E0,-1.149216816E-1,3.830722719E-2,9.805501938E0
1.228275061E0,-1.149216816E-1,0.000000000E0,9.805501938E0
1.229322195E0,-1.149216816E-1,3.830722719E-2,9.805501938E0
1.230316162E0,-1.149216816E-1,0.000000000E0,9.805501938E0
1.231346130E0,-1.149216816E-1,3.830722719E-2,9.805501938E0
1.232343197E0,-1.149216816E-1,0.000000000E0,9.805562019E0
1.233437061E0,-1.149216816E-1,3.830722719E-2,9.805562019E0
1.234305143E0,-1.149216816E-1,0.000000000E0,9.805562019E0
1.235308170E0,-1.149216816E-1,3.830722719E-2,9.805562019E0
1.236300230E0,-1.149216816E-1,0.000000000E0,9.805562019E0
1.237862110E0,-1.149216816E-1,3.830722719E-2,9.805562019E0
1.238293171E0,-1.149216816E-1,0.000000000E0,9.805562019E0
1.239424229E0,-1.149216816E-1,3.830722719E-2,9.805562019E0
1.240307093E0,-1.149216816E-1,0.000000000E0,9.805562019E0
1.241296053E0,-1.149216816E-1,3.830722719E-2,9.805562019E0
1.242321014E0,-1.915361285E-1,7.661445439E-2,9.805220604E0
1.243310928E0,-1.915361285E-1,1.149216816E-1,9.805220604E0
1.244436264E0,-1.915361285E-1,7.661445439E-2,9.805220604E0
1.245275021E0,-1.915361285E-1,1.149216816E-1,9.805220604E0
1.246291161E0,-1.915361285E-1,7.661445439E-2,9.805220604E0
1.247301102E0,-1.915361285E-1,1.149216816E-1,9.805220604E0
1.248295069E0,-1.915361285E-1,7.661445439E-2,9.805220604E0
1.249260187E0,-1.915361285E-1,1.149216816E-1,9.805220604E0
1.250338316E0,-1.915361285E-1,7.661445439E-2,9.805220604E0
1.251283169E0,-2.298433632E-1,7.661445439E-2,9.804711342E0
1.252303123E0,-2.298433632E-1,1.149216816E-1,9.804711342E0
1.253289223E0,-2.298433632E-1,7.661445439E-2,9.804711342E0
1.254285336E0,-2.298433632E-1,1.149216816E-1,9.804711342E0
1.255279064E0,-2.298433632E-1,7.661445439E-2,9.804711342E0
1.256300211E0,-2.298433632E-1,1.149216816E-1,9.804711342E0
1.257266045E0,-2.298433632E-1,7.661445439E-2,9.804711342E0
1.258298159E0,-2.298433632E-1,1.149216816E-1,9.804711342E0
1.259313107E0,-2.298433632E-1,7.661445439E-2,9.804711342E0
1.260286093E0,-2.298433632E-1,1.149216816E-1,9.804711342E0
1.261287212E0,-7.661445439E-2,0.000000000E0,9.805480957E0
1.262382269E0,-7.661445439E-2,3.830722719E-2,9.805480957E0
1.263422251E0,-7.661445439E-2,0.000000000E0,9.805480957E0
1.264273167E0,-7.661445439E-2,3.830722719E-2,9.805480957E0
1.265433311E0,-7.661445439E-2,0.000000000E0,9.805480957E0
1.266307354E0,-7.661445439E-2,3.830722719E-2,9.805480957E0
1.267452002E0,-7.661445439E-2,0.000000000E0,9.805480957E0
1.268294096E0,-7.661445439E-2,3.830722719E-2,9.805480957E0
1.269296169E0,-7.661445439E-2,0.000000000E0,9.805480957E0
1.270275354E0,-7.661445439E-2,3.830722719E-2,9.805480957E0
1.271275282E0,-1.149216816E-1,3.830722719E-2,9.805640221E0
1.272333145E0,-1.149216816E-1,7.661445439E-2,9.805640221E0
1.273317099E0,-1.149216816E-1,3.830722719E-2,9.805640221E0
1.274429083E0,-1.149216816E-1,7.661445439E-2,9.805640221E0
1.275348186E0,-1.149216816E-1,3.830722719E-2,9.805640221E0
1.276440144E0,-1.149216816E-1,7.661445439E-2,9.805640221E0
1.277291298E0,-1.149216816E-1,3.830722719E-2,9.805640221E0
1.278294325E0,-1.149216816E-1,7.661445439E-2,9.805640221E0
1.279328108E0,-1.149216816E-1,3.830722719E-2,9.805640221E0
1.280306101E0,-1.149216816E-1,7.661445439E-2,9.805640221E0
1.281282187E0,-7.661445439E-2,0.000000000E0,9.805946350E0
1.282288074E0,-7.661445439E-2,3.830722719E-2,9.805946350E0
1.283272028E0,-7.661445439E-2,0.000000000E0,9.805946350E0
1.284252167E0,-7.661445439E-2,3.830722719E-2,9.805946350E0
1.285271168E0,-7.661445439E-2,0.000000000E0,9.805946350E0
1.286300182E0,-7.661445439E-2,3.830722719E-2,9.805946350E0
1.287312031E0,-7.661445439E-2,0.000000000E0,9.805946350E0
1.288311243E0,-7.661445439E-2,3.830722719E-2,9.805946350E0
1.289306164E0,-7.661445439E-2,0.000000000E0,9.805946350E0
1.290301085E0,-7.661445439E-2,3.830722719E-2,9.805946350E0
1.291310310E0,-1.149216816E-1,1.532289088E-1,9.805946350E0
1.292289257E0,-1.149216816E-1,1.915361285E-1,9.805946350E0
1.293322086E0,-1.149216816E-1,1.532289088E-1,9.805946350E0
1.294305325E0,-1.149216816E-1,1.915361285E-1,9.805946350E0
1.295338154E0,-1.149216816E-1,1.532289088E-1,9.805946350E0
1.296307087E0,-1.149216816E-1,1.915361285E-1,9.805946350E0
1.297340155E0,-1.149216816E-1,1.532289088E-1,9.805946350E0
1.298372984E0,-1.149216816E-1,1.915361285E-1,9.805946350E0
1.299368143E0,-1.149216816E-1,1.532289088E-1,9.805946350E0
1.300326109E0,-1.149216816E-1,1.915361285E-1,9.805946350E0
1.301337957E0,-1.149216816E-1,7.661445439E-2,9.805878639E0
1.302306175E0,-1.149216816E-1,1.149216816E-1,9.805878639E0
1.303390265E0,-1.149216816E-1,7.661445439E-2,9.805878639E0
1.304337025E0,-1.149216816E-1,1.149216816E-1,9.805878639E0
1.305354118E0,-1.149216816E-1,7.661445439E-2,9.805878639E0
1.306787968E0,-1.149216816E-1,1.149216816E-1,9.805878639E0
1.307693243E0,-1.149216816E-1,7.661445439E-2,9.805878639E0
1.308293104E0,-1.149216816E-1,1.149216816E-1,9.805878639E0
1.309683084E0,-1.149216816E-1,7.661445439E-2,9.805878639E0
1.310336113E0,-1.149216816E-1,1.149216816E-1,9.805878639E0
1.311847210E0,-1.149216816E-1,7.661445439E-2,9.805814743E0
1.312453032E0,-1.149216816E-1,1.149216816E-1,9.805814743E0
1.313288212E0,-1.149216816E-1,7.661445439E-2,9.805814743E0
1.314300060E0,-1.149216816E-1,1.149216816E-1,9.805814743E0
1.315296173E0,-1.149216816E-1,7.661445439E-2,9.805814743E0
1.316298246E0,-1.149216816E-1,1.149216816E-1,9.805814743E0
1.317286015E0,-1.149216816E-1,7.661445439E-2,9.805814743E0
1.318270206E0,-1.149216816E-1,1.149216816E-1,9.805814743E0
1.319276333E0,-1.149216816E-1,7.661445439E-2,9.805814743E0
1.320296049E0,-1.149216816E-1,1.149216816E-1,9.805814743E0
1.321283340E0,-1.915361285E-1,1.149216816E-1,9.805315971E0
1.322296143E0,-1.915361285E-1,1.532289088E-1,9.805315971E0
1.323294163E0,-1.915361285E-1,1.149216816E-1,9.805315971E0
1.324319124E0,-1.915361285E-1,1.532289088E-1,9.805315971E0
1.325298071E0,-1.915361285E-1,1.149216816E-1,9.805315971E0
1.326281071E0,-1.915361285E-1,1.532289088E-1,9.805315971E0
1.327299356E0,-1.915361285E-1,1.149216816E-1,9.805315971E0
1.328283072E0,-1.915361285E-1,1.532289088E-1,9.805315971E0
1.329292297E0,-1.915361285E-1,1.149216816E-1,9.805315971E0
1.330318928E0,-1.915361285E-1,1.532289088E-1,9.805315971E0
1.331290960E0,-1.149216816E-1,1.149216816E-1,9.805331230E0
1.332290173E0,-1.149216816E-1,1.532289088E-1,9.805331230E0
1.333281279E0,-1.149216816E-1,1.149216816E-1,9.805331230E0
1.334293127E0,-1.149216816E-1,1.532289088E-1,9.805331230E0
1.335291147E0,-1.149216816E-1,1.149216816E-1,9.805331230E0
1.336322308E0,-1.149216816E-1,1.532289088E-1,9.805331230E0
1.337289095E0,-1.149216816E-1,1.149216816E-1,9.805331230E0
1.338301182E0,-1.149216816E-1,1.532289088E-1,9.805331230E0
1.339426279E0,-1.149216816E-1,1.149216816E-1,9.805331230E0
1.340445042E0,-1.149216816E-1,-3.830722719E-2,9.805660248E0
1.341274023E0,-1.149216816E-1,0.000000000E0,9.805660248E0
1.342333078E0,-1.149216816E-1,-3.830722719E-2,9.805660248E0
1.343274117E0,-1.149216816E-1,0.000000000E0,9.805660248E0
1.344432116E0,-1.149216816E-1,-3.830722719E-2,9.805660248E0
1.345411301E0,-1.149216816E-1,0.000000000E0,9.805660248E0
1.346417189E0,-1.149216816E-1,-3.830722719E-2,9.805660248E0
1.347269058E0,-1.149216816E-1,0.000000000E0,9.805660248E0
1.348407269E0,-1.149216816E-1,-3.830722719E-2,9.805660248E0
1.349411249E0,-1.149216816E-1,0.000000000E0,9.805660248E0
1.350416183E0,-1.532289088E-1,3.830722719E-2,9.805567741E0
1.351361275E0,-1.532289088E-1,7.661445439E-2,9.805567741E0
1.352411985E0,-1.532289088E-1,3.830722719E-2,9.805567741E0
1.353282213E0,-1.532289088E-1,7.661445439E-2,9.805567741E0
1.354288101E0,-1.532289088E-1,3.830722719E-2,9.805567741E0
1.355308294E0,-1.532289088E-1,7.661445439E-2,9.805567741E0
1.356299162E0,-1.532289088E-1,3.830722719E-2,9.805567741E0
1.357274055E0,-1.532289088E-1,7.661445439E-2,9.805567741E0
1.358261108E0,-1.532289088E-1,3.830722719E-2,9.805567741E0
1.359296083E0,-1.532289088E-1,7.661445439E-2,9.805567741E0
1.360320091E0,-1.532289088E-1,7.661445439E-2,9.805504799E0
1.361338139E0,-1.532289088E-1,1.149216816E-1,9.805504799E0
1.362303257E0,-1.532289088E-1,7.661445439E-2,9.805504799E0
1.363305092E0,-1.532289088E-1,1.149216816E-1,9.805504799E0
1.364819050E0,-1.532289088E-1,7.661445439E-2,9.805504799E0
1.365271330E0,-1.532289088E-1,1.149216816E-1,9.805504799E0
1.366299152E0,-1.532289088E-1,7.661445439E-2,9.805504799E0
1.367277145E0,-1.532289088E-1,1.149216816E-1,9.805504799E0
1.368261099E0,-1.532289088E-1,7.661445439E-2,9.805504799E0
1.369289160E0,-1.532289088E-1,1.149216816E-1,9.805504799E0
1.370297194E0,-7.661445439E-2,7.661445439E-2,9.805739403E0
1.371268988E0,-7.661445439E-2,1.149216816E-1,9.805739403E0
1.372352123E0,-7.661445439E-2,7.661445439E-2,9.805739403E0
1.373301268E0,-7.661445439E-2,1.149216816E-1,9.805739403E0
1.374437094E0,-7.661445439E-2,7.661445439E-2,9.805739403E0
1.375286102E0,-7.661445439E-2,1.149216816E-1,9.805739403E0
1.376462221E0,-7.661445439E-2,7.661445439E-2,9.805739403E0
1.377321243E0,-7.661445439E-2,1.149216816E-1,9.805739403E0
1.378329277E0,-7.661445439E-2,7.661445439E-2,9.805739403E0
1.379281998E0,-7.661445439E-2,1.149216816E-1,9.805739403E0
1.380332232E0,-1.532289088E-1,7.661445439E-2,9.805553436E0
1.381309032E0,-1.532289088E-1,1.149216816E-1,9.805553436E0
1.382341146E0,-1.532289088E-1,7.661445439E-2,9.805553436E0
1.383871078E0,-1.532289088E-1,1.149216816E-1,9.805553436E0
1.384329081E0,-1.532289088E-1,7.661445439E-2,9.805553436E0
1.385313272E0,-1.532289088E-1,1.149216816E-1,9.805553436E0
1.386288166E0,-1.532289088E-1,7.661445439E-2,9.805553436E0
1.387302160E0,-1.532289088E-1,1.149216816E-1,9.805553436E0
1.388288260E0,-1.532289088E-1,7.661445439E-2,9.805553436E0
1.389317989E0,-1.532289088E-1,1.149216816E-1,9.805553436E0
1.390315294E0,-1.532289088E-1,3.830722719E-2,9.805620193E0
1.391295195E0,-1.532289088E-1,7.661445439E-2,9.805620193E0
1.392446041E0,-1.532289088E-1,3.830722719E-2,9.805620193E0
1.393301249E0,-1.532289088E-1,7.661445439E-2,9.805620193E0
1.394439220E0,-1.532289088E-1,3.830722719E-2,9.805620193E0
1.395296097E0,-1.532289088E-1,7.661445439E-2,9.805620193E0
1.396318197E0,-1.532289088E-1,3.830722719E-2,9.805620193E0
1.397264004E0,-1.532289088E-1,7.661445439E-2,9.805620193E0
1.398270130E0,-1.532289088E-1,3.830722719E-2,9.805620193E0
1.399285078E0,-1.532289088E-1,7.661445439E-2,9.805620193E0
1.400308132E0,-1.532289088E-1,1.149216816E-1,9.805480003E0
1.401262283E0,-1.532289088E-1,1.532289088E-1,9.805480003E0
1.402257204E0,-1.532289088E-1,1.149216816E-1,9.805480003E0
1.403316259E0,-1.532289088E-1,1.532289088E-1,9.805480003E0
1.404304028E0,-1.532289088E-1,1.149216816E-1,9.805480003E0
1.405294180E0,-1.532289088E-1,1.532289088E-1,9.805480003E0
1.406302214E0,-1.532289088E-1,1.149216816E-1,9.805480003E0
1.407299995E0,-1.532289088E-1,1.532289088E-1,9.805480003E0
1.408303976E0,-1.532289088E-1,1.149216816E-1,9.805480003E0
1.409311056E0,-1.532289088E-1,1.532289088E-1,9.805480003E0
1.410295248E0,-7.661445439E-2,7.661445439E-2,9.805706024E0
1.411295176E0,-7.661445439E-2,1.149216816E-1,9.805706024E0
1.412278175E0,-7.661445439E-2,7.661445439E-2,9.805706024E0
1.413298130E0,-7.661445439E-2,1.149216816E-1,9.805706024E0
1.414308071E0,-7.661445439E-2,7.661445439E-2,9.805706024E0
1.415311098E0,-7.661445439E-2,1.149216816E-1,9.805706024E0
1.416314125E0,-7.661445439E-2,7.661445439E-2,9.805706024E0
1.417361021E0,-7.661445439E-2,1.149216816E-1,9.805706024E0
1.418390274E0,-7.661445439E-2,7.661445439E-2,9.805706024E0
1.419301987E0,-7.661445439E-2,1.149216816E-1,9.805706024E0
1.420300245E0,-1.532289088E-1,7.661445439E-2,9.805538177E0
1.421323299E0,-1.532289088E-1,1.149216816E-1,9.805538177E0
1.422323227E0,-1.532289088E-1,7.661445439E-2,9.805538177E0
1.423283100E0,-1.532289088E-1,1.149216816E-1,9.805538177E0
1.424287081E0,-1.532289088E-1,7.661445439E-2,9.805538177E0
1.425292253E0,-1.532289088E-1,1.149216816E-1,9.805538177E0
1.426293135E0,-1.532289088E-1,7.661445439E-2,9.805538177E0
1.427309275E0,-1.532289088E-1,1.149216816E-1,9.805538177E0
1.428271055E0,-1.532289088E-1,7.661445439E-2,9.805538177E0
1.429322243E0,-1.532289088E-1,1.149216816E-1,9.805538177E0
1.430299997E0,-1.532289088E-1,7.661445439E-2,9.805538177E0
1.431311131E0,-1.532289088E-1,1.149216816E-1,9.805538177E0
1.432454109E0,-1.532289088E-1,7.661445439E-2,9.805538177E0
1.433307171E0,-1.532289088E-1,1.149216816E-1,9.805538177E0
1.434452057E0,-1.532289088E-1,7.661445439E-2,9.805538177E0
1.435308218E0,-1.532289088E-1,1.149216816E-1,9.805538177E0
1.436298132E0,-1.532289088E-1,7.661445439E-2,9.805538177E0
1.437422991E0,-1.532289088E-1,1.149216816E-1,9.805538177E0
1.438400269E0,-1.532289088E-1,7.661445439E-2,9.805538177E0
1.439257383E0,-1.532289088E-1,1.149216816E-1,9.805538177E0
1.440321207E0,-1.149216816E-1,1.149216816E-1,9.805474281E0
1.441286087E0,-1.149216816E-1,1.532289088E-1,9.805474281E0
1.442288160E0,-1.149216816E-1,1.149216816E-1,9.805474281E0
1.443262100E0,-1.149216816E-1,1.532289088E-1,9.805474281E0
1.444285154E0,-1.149216816E-1,1.149216816E-1,9.805474281E0
1.445304155E0,-1.149216816E-1,1.532289088E-1,9.805474281E0
1.446291208E0,-1.149216816E-1,1.149216816E-1,9.805474281E0
1.447276115E0,-1.149216816E-1,1.532289088E-1,9.805474281E0
1.448313951E0,-1.149216816E-1,1.149216816E-1,9.805474281E0
1.449281216E0,-1.149216816E-1,1.532289088E-1,9.805474281E0
1.450340986E0,-7.661445439E-2,1.532289088E-1,9.805435181E0
1.451358080E0,-7.661445439E-2,1.915361285E-1,9.805435181E0
1.452316046E0,-7.661445439E-2,1.532289088E-1,9.805435181E0
1.453294277E0,-7.661445439E-2,1.915361285E-1,9.805435181E0
1.454312086E0,-7.661445439E-2,1.532289088E-1,9.805435181E0
1.455310345E0,-7.661445439E-2,1.915361285E-1,9.805435181E0
1.456323385E0,-7.661445439E-2,1.532289088E-1,9.805435181E0
1.457320213E0,-7.661445439E-2,1.915361285E-1,9.805435181E0
1.458296299E0,-7.661445439E-2,1.532289088E-1,9.805435181E0
1.459282160E0,-1.532289088E-1,7.661445439E-2,9.805435181E0
1.460317135E0,-1.532289088E-1,1.149216816E-1,9.805435181E0
1.461281300E0,-1.532289088E-1,7.661445439E-2,9.805435181E0
1.462293148E0,-1.532289088E-1,1.149216816E-1,9.805435181E0
1.463321209E0,-1.532289088E-1,7.661445439E-2,9.805435181E0
1.464286089E0,-1.532289088E-1,1.149216816E-1,9.805435181E0
1.465278149E0,-1.532289088E-1,7.661445439E-2,9.805435181E0
1.466284275E0,-1.532289088E-1,1.149216816E-1,9.805435181E0
1.467286110E0,-1.532289088E-1,7.661445439E-2,9.805435181E0
1.468376160E0,-1.532289088E-1,1.149216816E-1,9.805435181E0
1.469274998E0,-1.149216816E-1,7.661445439E-2,9.805531502E0
1.470330000E0,-1.149216816E-1,1.149216816E-1,9.805531502E0
1.471276283E0,-1.149216816E-1,7.661445439E-2,9.805531502E0
1.472304106E0,-1.149216816E-1,1.149216816E-1,9.805531502E0
1.473286152E0,-1.149216816E-1,7.661445439E-2,9.805531502E0
1.474297285E0,-1.149216816E-1,1.149216816E-1,9.805531502E0
1.475287199E0,-1.149216816E-1,7.661445439E-2,9.805531502E0
1.476305008E0,-1.149216816E-1,1.149216816E-1,9.805531502E0
1.477304220E0,-1.149216816E-1,7.661445439E-2,9.805531502E0
1.478274345E0,-1.149216816E-1,1.149216816E-1,9.805531502E0
1.479460955E0,-1.149216816E-1,7.661445439E-2,9.805531502E0
1.480298281E0,-1.149216816E-1,1.149216816E-1,9.805531502E0
1.481305361E0,-1.149216816E-1,7.661445439E-2,9.805531502E0
1.482273102E0,-1.149216816E-1,1.149216816E-1,9.805531502E0
1.483463049E0,-1.149216816E-1,7.661445439E-2,9.805531502E0
1.484333277E0,-1.149216816E-1,1.149216816E-1,9.805531502E0
1.485337257E0,-1.149216816E-1,7.661445439E-2,9.805531502E0
1.486315250E0,-1.149216816E-1,1.149216816E-1,9.805531502E0
1.487381220E0,-1.149216816E-1,7.661445439E-2,9.805531502E0
1.488317013E0,-1.149216816E-1,1.149216816E-1,9.805531502E0
1.489310265E0,-1.149216816E-1,7.661445439E-2,9.805607796E0
1.490363121E0,-1.149216816E-1,1.149216816E-1,9.805607796E0
1.491295099E0,-1.149216816E-1,7.661445439E-2,9.805607796E0
1.492412090E0,-1.149216816E-1,1.149216816E-1,9.805607796E0
1.493309021E0,-1.149216816E-1,7.661445439E-2,9.805607796E0
1.494338274E0,-1.149216816E-1,1.149216816E-1,9.805607796E0
1.495356083E0,-1.149216816E-1,7.661445439E-2,9.805607796E0
1.496285200E0,-1.149216816E-1,1.149216816E-1,9.805607796E0
1.497327089E0,-1.149216816E-1,7.661445439E-2,9.805607796E0
1.498442173E0,-1.149216816E-1,1.149216816E-1,9.805607796E0
1.499296188E0,-1.532289088E-1,1.149216816E-1,9.805356979E0
1.500308275E0,-1.532289088E-1,1.532289088E-1,9.805356979E0
1.501321077E0,-1.532289088E-1,1.149216816E-1,9.805356979E0
1.502294302E0,-1.532289088E-1,1.532289088E-1,9.805356979E0
1.503369093E0,-1.532289088E-1,1.149216816E-1,9.805356979E0
1.504310131E0,-1.532289088E-1,1.532289088E-1,9.805356979E0
1.505315304E0,-1.532289088E-1,1.149216816E-1,9.805356979E0
1.506302118E0,-1.532289088E-1,1.532289088E-1,9.805356979E0
1.507302046E0,-1.532289088E-1,1.149216816E-1,9.805356979E0
1.508306026E0,-1.532289088E-1,1.532289088E-1,9.805356979E0
1.509302139E0,-1.149216816E-1,3.830722719E-2,9.805585861E0
1.510268211E0,-1.149216816E-1,7.661445439E-2,9.805585861E0
1.511294127E0,-1.149216816E-1,3.830722719E-2,9.805585861E0
1.512293100E0,-1.149216816E-1,7.661445439E-2,9.805585861E0
1.513283968E0,-1.149216816E-1,3.830722719E-2,9.805585861E0
1.514291048E0,-1.149216816E-1,7.661445439E-2,9.805585861E0
1.515311003E0,-1.149216816E-1,3.830722719E-2,9.805585861E0
1.516309261E0,-1.149216816E-1,7.661445439E-2,9.805585861E0
1.517291307E0,-1.149216816E-1,3.830722719E-2,9.805585861E0
1.518315315E0,-1.149216816E-1,7.661445439E-2,9.805585861E0
1.519321203E0,-1.915361285E-1,1.532289088E-1,9.805035591E0
1.520315170E0,-1.915361285E-1,1.915361285E-1,9.805035591E0
1.521283150E0,-1.915361285E-1,1.532289088E-1,9.805035591E0
1.522316217E0,-1.915361285E-1,1.915361285E-1,9.805035591E0
1.523284197E0,-1.915361285E-1,1.532289088E-1,9.805035591E0
1.524351120E0,-1.915361285E-1,1.915361285E-1,9.805035591E0
1.525294304E0,-1.915361285E-1,1.532289088E-1,9.805035591E0
1.526308060E0,-1.915361285E-1,1.915361285E-1,9.805035591E0
1.527290106E0,-1.915361285E-1,1.532289088E-1,9.805035591E0
1.528302193E0,-1.915361285E-1,1.915361285E-1,9.805035591E0
1.529305935E0,-1.532289088E-1,-3.830722719E-2,9.805382729E0
1.530297995E0,-1.532289088E-1,0.000000000E0,9.805382729E0
1.531332970E0,-1.532289088E-1,-3.830722719E-2,9.805382729E0
1.532285213E0,-1.532289088E-1,0.000000000E0,9.805382729E0
1.533354282E0,-1.532289088E-1,-3.830722719E-2,9.805382729E0
1.534786224E0,-1.532289088E-1,0.000000000E0,9.805382729E0
1.535268068E0,-1.532289088E-1,-3.830722719E-2,9.805382729E0
1.536260128E0,-1.532289088E-1,0.000000000E0,9.805382729E0
1.537317038E0,-1.532289088E-1,-3.830722719E-2,9.805382729E0
1.538316250E0,-1.532289088E-1,0.000000000E0,9.805382729E0
1.539306164E0,-1.532289088E-1,1.532289088E-1,9.805152893E0
1.540334940E0,-1.532289088E-1,1.915361285E-1,9.805152893E0
1.541318178E0,-1.532289088E-1,1.532289088E-1,9.805152893E0
1.542326212E0,-1.532289088E-1,1.915361285E-1,9.805152893E0
1.543351173E0,-1.532289088E-1,1.532289088E-1,9.805152893E0
1.544320107E0,-1.532289088E-1,1.915361285E-1,9.805152893E0
1.545311213E0,-1.532289088E-1,1.532289088E-1,9.805152893E0
1.546317339E0,-1.532289088E-1,1.915361285E-1,9.805152893E0
1.547492981E0,-1.532289088E-1,1.532289088E-1,9.805152893E0
1.548351288E0,-1.532289088E-1,1.915361285E-1,9.805152893E0
1.549365282E0,-1.149216816E-1,0.000000000E0,9.805524826E0
1.550318956E0,-1.149216816E-1,3.830722719E-2,9.805524826E0
1.551325083E0,-1.149216816E-1,0.000000000E0,9.805524826E0
1.552394152E0,-1.149216816E-1,3.830722719E-2,9.805524826E0
1.553356171E0,-1.149216816E-1,0.000000000E0,9.805524826E0
1.554348230E0,-1.149216816E-1,3.830722719E-2,9.805524826E0
1.555366039E0,-1.149216816E-1,0.000000000E0,9.805524826E0
1.556461334E0,-1.149216816E-1,3.830722719E-2,9.805524826E0
1.557306051E0,-1.149216816E-1,0.000000000E0,9.805524826E0
1.558337212E0,-7.661445439E-2,3.830722719E-2,9.805817604E0
1.559308290E0,-7.661445439E-2,7.661445439E-2,9.805817604E0
1.560321331E0,-7.661445439E-2,3.830722719E-2,9.805817604E0
1.561301231E0,-7.661445439E-2,7.661445439E-2,9.805817604E0
1.562299013E0,-7.661445439E-2,3.830722719E-2,9.805817604E0
1.563384295E0,-7.661445439E-2,7.661445439E-2,9.805817604E0
1.564315081E0,-7.661445439E-2,3.830722719E-2,9.805817604E0
1.565288067E0,-7.661445439E-2,7.661445439E-2,9.805817604E0
1.566312075E0,-7.661445439E-2,3.830722719E-2,9.805817604E0
1.567326069E0,-7.661445439E-2,7.661445439E-2,9.805817604E0
1.568324089E0,-1.532289088E-1,1.149216816E-1,9.805538177E0
1.569326162E0,-1.532289088E-1,1.532289088E-1,9.805538177E0
1.570347309E0,-1.532289088E-1,1.149216816E-1,9.805538177E0
1.571353197E0,-1.532289088E-1,1.532289088E-1,9.805538177E0
1.572303057E0,-1.532289088E-1,1.149216816E-1,9.805538177E0
1.573534250E0,-1.532289088E-1,1.532289088E-1,9.805538177E0
1.574295282E0,-1.532289088E-1,1.149216816E-1,9.805538177E0
1.575849056E0,-1.532289088E-1,1.532289088E-1,9.805538177E0
1.576281309E0,-1.532289088E-1,1.149216816E-1,9.805538177E0
1.577316046E0,-1.532289088E-1,1.532289088E-1,9.805538177E0
1.578497171E0,-1.532289088E-1,3.830722719E-2,9.805538177E0
1.579310179E0,-1.532289088E-1,7.661445439E-2,9.805538177E0
1.580453157E0,-1.532289088E-1,3.830722719E-2,9.805538177E0
1.581312180E0,-1.532289088E-1,7.661445439E-2,9.805538177E0
1.582303286E0,-1.532289088E-1,3.830722719E-2,9.805538177E0
1.583349228E0,-1.532289088E-1,7.661445439E-2,9.805538177E0
1.584309101E0,-1.532289088E-1,3.830722719E-2,9.805538177E0
1.585321188E0,-1.532289088E-1,7.661445439E-2,9.805538177E0
1.586300135E0,-1.532289088E-1,3.830722719E-2,9.805538177E0
1.587340117E0,-1.532289088E-1,7.661445439E-2,9.805538177E0
1.588384151E0,-1.915361285E-1,7.661445439E-2,9.805230141E0
1.589314222E0,-1.915361285E-1,1.149216816E-1,9.805230141E0
1.590485096E0,-1.915361285E-1,7.661445439E-2,9.805230141E0
1.591287136E0,-1.915361285E-1,1.149216816E-1,9.805230141E0
1.592465162E0,-1.915361285E-1,7.661445439E-2,9.805230141E0
1.593501091E0,-1.915361285E-1,1.149216816E-1,9.805230141E0
1.594309092E0,-1.915361285E-1,7.661445439E-2,9.805230141E0
1.595341206E0,-1.915361285E-1,1.149216816E-1,9.805230141E0
1.596288204E0,-1.915361285E-1,7.661445439E-2,9.805230141E0
1.597462177E0,-1.915361285E-1,1.149216816E-1,9.805230141E0
1.598278999E0,-1.149216816E-1,7.661445439E-2,9.805391312E0
1.599325180E0,-1.149216816E-1,1.149216816E-1,9.805391312E0
1.600422144E0,-1.149216816E-1,7.661445439E-2,9.805391312E0
1.601296186E0,-1.149216816E-1,1.149216816E-1,9.805391312E0
1.602415085E0,-1.149216816E-1,7.661445439E-2,9.805391312E0
1.603267193E0,-1.149216816E-1,1.149216816E-1,9.805391312E0
1.604306221E0,-1.149216816E-1,7.661445439E-2,9.805391312E0
1.605305195E0,-1.149216816E-1,1.149216816E-1,9.805391312E0
1.606318951E0,-1.149216816E-1,7.661445439E-2,9.805391312E0
1.607305050E0,-1.149216816E-1,1.149216816E-1,9.805391312E0
1.608314991E0,-1.149216816E-1,3.830722719E-2,9.805473328E0
1.609305382E0,-1.149216816E-1,7.661445439E-2,9.805473328E0
1.610301018E0,-1.149216816E-1,3.830722719E-2,9.805473328E0
1.611282110E0,-1.149216816E-1,7.661445439E-2,9.805473328E0
1.612462282E0,-1.149216816E-1,3.830722719E-2,9.805473328E0
1.613345146E0,-1.149216816E-1,7.661445439E-2,9.805473328E0
1.614468098E0,-1.149216816E-1,3.830722719E-2,9.805473328E0
1.615280151E0,-1.149216816E-1,7.661445439E-2,9.805473328E0
1.616467237E0,-1.149216816E-1,3.830722719E-2,9.805473328E0
1.617307186E0,-1.149216816E-1,7.661445439E-2,9.805473328E0
1.618334055E0,-1.532289088E-1,7.661445439E-2,9.805373192E0
1.619295120E0,-1.532289088E-1,1.149216816E-1,9.805373192E0
1.620334387E0,-1.532289088E-1,7.661445439E-2,9.805373192E0
1.621315241E0,-1.532289088E-1,1.149216816E-1,9.805373192E0
1.622287989E0,-1.532289088E-1,7.661445439E-2,9.805373192E0
1.623340130E0,-1.532289088E-1,1.149216816E-1,9.805373192E0
1.624414206E0,-1.532289088E-1,7.661445439E-2,9.805373192E0
1.625317097E0,-1.532289088E-1,1.149216816E-1,9.805373192E0
1.626486301E0,-1.532289088E-1,7.661445439E-2,9.805373192E0
1.627287149E0,-1.532289088E-1,1.149216816E-1,9.805373192E0
1.628334284E0,-1.915361285E-1,7.661445439E-2,9.805103302E0
1.629292250E0,-1.915361285E-1,1.149216816E-1,9.805103302E0
1.630263329E0,-1.915361285E-1,7.661445439E-2,9.805103302E0
1.631289959E0,-1.915361285E-1,1.149216816E-1,9.805103302E0
1.632299185E0,-1.915361285E-1,7.661445439E-2,9.805103302E0
1.633362055E0,-1.915361285E-1,1.149216816E-1,9.805103302E0
1.634301186E0,-1.915361285E-1,7.661445439E-2,9.805103302E0
1.635302067E0,-1.915361285E-1,1.149216816E-1,9.805103302E0
1.636304140E0,-1.915361285E-1,7.661445439E-2,9.805103302E0
1.637298107E0,-1.915361285E-1,1.149216816E-1,9.805103302E0
1.638326168E0,-1.532289088E-1,1.149216816E-1,9.805027008E0
1.639351130E0,-1.532289088E-1,1.532289088E-1,9.805027008E0
1.640393257E0,-1.532289088E-1,1.149216816E-1,9.805027008E0
1.641307116E0,-1.532289088E-1,1.532289088E-1,9.805027008E0
1.642283201E0,-1.532289088E-1,1.149216816E-1,9.805027008E0
1.643358231E0,-1.532289088E-1,1.532289088E-1,9.805027008E0
1.644286156E0,-1.532289088E-1,1.149216816E-1,9.805027008E0
1.645481110E0,-1.532289088E-1,1.532289088E-1,9.805027008E0
1.646338224E0,-1.532289088E-1,1.149216816E-1,9.805027008E0
1.647270203E0,-1.532289088E-1,1.532289088E-1,9.805027008E0
1.648281336E0,-1.149216816E-1,3.830722719E-2,9.805354118E0
1.649429083E0,-1.149216816E-1,7.661445439E-2,9.805354118E0
1.650279045E0,-1.149216816E-1,3.830722719E-2,9.805354118E0
1.651315212E0,-1.149216816E-1,7.661445439E-2,9.805354118E0
1.652462959E0,-1.149216816E-1,3.830722719E-2,9.805354118E0
1.653280258E0,-1.149216816E-1,7.661445439E-2,9.805354118E0
1.654270172E0,-1.149216816E-1,3.830722719E-2,9.805354118E0
1.655303001E0,-1.149216816E-1,7.661445439E-2,9.805354118E0
1.656885147E0,-1.149216816E-1,3.830722719E-2,9.805354118E0
1.657267094E0,-1.149216816E-1,7.661445439E-2,9.805354118E0
1.658365011E0,-1.532289088E-1,1.149216816E-1,9.805197716E0
1.659301996E0,-1.532289088E-1,1.532289088E-1,9.805197716E0
1.660301208E0,-1.532289088E-1,1.149216816E-1,9.805197716E0
1.661442280E0,-1.532289088E-1,1.532289088E-1,9.805197716E0
1.662387133E0,-1.532289088E-1,1.149216816E-1,9.805197716E0
1.663444281E0,-1.532289088E-1,1.532289088E-1,9.805197716E0
1.664455175E0,-1.532289088E-1,1.149216816E-1,9.805197716E0
1.665292263E0,-1.532289088E-1,1.532289088E-1,9.805197716E0
1.666435242E0,-1.532289088E-1,1.149216816E-1,9.805197716E0
1.667286158E0,-1.915361285E-1,1.149216816E-1,9.804878235E0
1.668272018E0,-1.915361285E-1,1.532289088E-1,9.804878235E0
1.669485331E0,-1.915361285E-1,1.149216816E-1,9.804878235E0
1.670330048E0,-1.915361285E-1,1.532289088E-1,9.804878235E0
1.671383142E0,-1.915361285E-1,1.149216816E-1,9.804878235E0
1.672317028E0,-1.915361285E-1,1.532289088E-1,9.804878235E0
1.673443317E0,-1.915361285E-1,1.149216816E-1,9.804878235E0
1.674298048E0,-1.915361285E-1,1.532289088E-1,9.804878235E0
1.675459385E0,-1.915361285E-1,1.149216816E-1,9.804878235E0
1.676433086E0,-1.915361285E-1,1.532289088E-1,9.804878235E0
1.677293301E0,-1.149216816E-1,3.830722719E-2,9.805261612E0
1.678350925E0,-1.149216816E-1,7.661445439E-2,9.805261612E0
1.679267168E0,-1.149216816E-1,3.830722719E-2,9.805261612E0
1.680398941E0,-1.149216816E-1,7.661445439E-2,9.805261612E0
1.681325197E0,-1.149216816E-1,3.830722719E-2,9.805261612E0
1.682345152E0,-1.149216816E-1,7.661445439E-2,9.805261612E0
1.683318138E0,-1.149216816E-1,3.830722719E-2,9.805261612E0
1.684311152E0,-1.149216816E-1,7.661445439E-2,9.805261612E0
1.685295105E0,-1.149216816E-1,3.830722719E-2,9.805261612E0
1.686399221E0,-1.149216816E-1,7.661445439E-2,9.805261612E0
1.687461138E0,-1.149216816E-1,1.149216816E-1,9.805165291E0
1.688294172E0,-1.149216816E-1,1.532289088E-1,9.805165291E0
1.689345121E0,-1.149216816E-1,1.149216816E-1,9.805165291E0
1.690324068E0,-1.149216816E-1,1.532289088E-1,9.805165291E0
1.691309214E0,-1.149216816E-1,1.149216816E-1,9.805165291E0
1.692332268E0,-1.149216816E-1,1.532289088E-1,9.805165291E0
1.693337202E0,-1.149216816E-1,1.149216816E-1,9.805165291E0
1.694360256E0,-1.149216816E-1,1.532289088E-1,9.805165291E0
1.695350170E0,-1.149216816E-1,1.149216816E-1,9.805165291E0
1.696335077E0,-1.149216816E-1,1.532289088E-1,9.805165291E0
1.697369337E0,-1.149216816E-1,0.000000000E0,9.805369377E0
1.698331118E0,-1.149216816E-1,3.830722719E-2,9.805369377E0
1.699314117E0,-1.149216816E-1,0.000000000E0,9.805369377E0
1.700335979E0,-1.149216816E-1,3.830722719E-2,9.805369377E0
1.701346159E0,-1.149216816E-1,0.000000000E0,9.805369377E0
1.702442169E0,-1.149216816E-1,3.830722719E-2,9.805369377E0
1.703288317E0,-1.149216816E-1,0.000000000E0,9.805369377E0
1.704315186E0,-1.149216816E-1,3.830722719E-2,9.805369377E0
1.705332279E0,-1.149216816E-1,0.000000000E0,9.805369377E0
1.706312180E0,-1.149216816E-1,3.830722719E-2,9.805369377E0
1.707317114E0,-1.915361285E-1,7.661445439E-2,9.805369377E0
1.708302975E0,-1.915361285E-1,1.149216816E-1,9.805369377E0
1.709445000E0,-1.915361285E-1,7.661445439E-2,9.805369377E0
1.710285187E0,-1.915361285E-1,1.149216816E-1,9.805369377E0
1.711309195E0,-1.915361285E-1,7.661445439E-2,9.805369377E0
1.712362289E0,-1.915361285E-1,1.149216816E-1,9.805369377E0
1.713376284E0,-1.915361285E-1,7.661445439E-2,9.805369377E0
1.714300156E0,-1.915361285E-1,1.149216816E-1,9.805369377E0
1.715273142E0,-1.915361285E-1,7.661445439E-2,9.805369377E0
1.716462374E0,-1.915361285E-1,1.149216816E-1,9.805369377E0
1.717345238E0,-1.532289088E-1,7.661445439E-2,9.805304527E0
1.718297958E0,-1.532289088E-1,1.149216816E-1,9.805304527E0
1.719286203E0,-1.532289088E-1,7.661445439E-2,9.805304527E0
1.720310211E0,-1.532289088E-1,1.149216816E-1,9.805304527E0
1.721368313E0,-1.532289088E-1,7.661445439E-2,9.805304527E0
1.722284317E0,-1.532289088E-1,1.149216816E-1,9.805304527E0
1.723284245E0,-1.532289088E-1,7.661445439E-2,9.805304527E0
1.724298239E0,-1.532289088E-1,1.149216816E-1,9.805304527E0
1.725270271E0,-1.532289088E-1,7.661445439E-2,9.805304527E0
1.726293087E0,-1.532289088E-1,1.149216816E-1,9.805304527E0
1.727322102E0,-1.532289088E-1,1.532289088E-1,9.805103302E0
1.728344202E0,-1.532289088E-1,1.915361285E-1,9.805103302E0
1.729268074E0,-1.532289088E-1,1.532289088E-1,9.805103302E0
1.730461121E0,-1.532289088E-1,1.915361285E-1,9.805103302E0
1.731295109E0,-1.532289088E-1,1.532289088E-1,9.805103302E0
1.732435226E0,-1.532289088E-1,1.915361285E-1,9.805103302E0
1.733284950E0,-1.532289088E-1,1.532289088E-1,9.805103302E0
1.734270096E0,-1.532289088E-1,1.915361285E-1,9.805103302E0
1.735313177E0,-1.532289088E-1,1.532289088E-1,9.805103302E0
1.736369133E0,-1.532289088E-1,1.915361285E-1,9.805103302E0
1.737356186E0,-1.532289088E-1,7.661445439E-2,9.805140495E0
1.738283157E0,-1.532289088E-1,1.149216816E-1,9.805140495E0
1.739316225E0,-1.532289088E-1,7.661445439E-2,9.805140495E0
1.740323305E0,-1.532289088E-1,1.149216816E-1,9.805140495E0
1.741425037E0,-1.532289088E-1,7.661445439E-2,9.805140495E0
1.742321014E0,-1.532289088E-1,1.149216816E-1,9.805140495E0
1.743320227E0,-1.532289088E-1,7.661445439E-2,9.805140495E0
1.744310141E0,-1.532289088E-1,1.149216816E-1,9.805140495E0
1.745441198E0,-1.532289088E-1,7.661445439E-2,9.805140495E0
1.746389151E0,-1.532289088E-1,1.149216816E-1,9.805140495E0
1.747315168E0,-1.149216816E-1,7.661445439E-2,9.805323601E0
1.748316050E0,-1.149216816E-1,1.149216816E-1,9.805323601E0
1.749699354E0,-1.149216816E-1,7.661445439E-2,9.805323601E0
1.750449181E0,-1.149216816E-1,1.149216816E-1,9.805323601E0
1.751325130E0,-1.149216816E-1,7.661445439E-2,9.805323601E0
1.752312183E0,-1.149216816E-1,1.149216816E-1,9.805323601E0
1.753346205E0,-1.149216816E-1,7.661445439E-2,9.805323601E0
1.754399061E0,-1.149216816E-1,1.149216816E-1,9.805323601E0
1.755324125E0,-1.149216816E-1,7.661445439E-2,9.805323601E0
1.756290197E0,-1.149216816E-1,1.149216816E-1,9.805323601E0
1.757326365E0,-1.915361285E-1,1.149216816E-1,9.804983139E0
1.758302212E0,-1.915361285E-1,1.532289088E-1,9.804983139E0
1.759326220E0,-1.915361285E-1,1.149216816E-1,9.804983139E0
1.760310173E0,-1.915361285E-1,1.532289088E-1,9.804983139E0
1.761302233E0,-1.915361285E-1,1.149216816E-1,9.804983139E0
1.762259245E0,-1.915361285E-1,1.532289088E-1,9.804983139E0
1.763334036E0,-1.915361285E-1,1.149216816E-1,9.804983139E0
1.764309168E0,-1.915361285E-1,1.532289088E-1,9.804983139E0
1.765854120E0,-1.915361285E-1,1.149216816E-1,9.804983139E0
1.766260147E0,-1.915361285E-1,1.532289088E-1,9.804983139E0
1.767301083E0,-1.532289088E-1,1.149216816E-1,9.804932594E0
1.768289328E0,-1.532289088E-1,1.532289088E-1,9.804932594E0
1.769292116E0,-1.532289088E-1,1.149216816E-1,9.804932594E0
1.770287991E0,-1.532289088E-1,1.532289088E-1,9.804932594E0
1.771380186E0,-1.532289088E-1,1.149216816E-1,9.804932594E0
1.772336006E0,-1.532289088E-1,1.532289088E-1,9.804932594E0
1.773334265E0,-1.532289088E-1,1.149216816E-1,9.804932594E0
1.774328232E0,-1.532289088E-1,1.532289088E-1,9.804932594E0
1.775294065E0,-1.532289088E-1,1.149216816E-1,9.804932594E0
1.776310205E0,-2.298433632E-1,7.661445439E-2,9.804571152E0
1.777274132E0,-2.298433632E-1,1.149216816E-1,9.804571152E0
1.778279066E0,-2.298433632E-1,7.661445439E-2,9.804571152E0
1.779275179E0,-2.298433632E-1,1.149216816E-1,9.804571152E0
1.780345201E0,-2.298433632E-1,7.661445439E-2,9.804571152E0
1.781302214E0,-2.298433632E-1,1.149216816E-1,9.804571152E0
1.782309055E0,-2.298433632E-1,7.661445439E-2,9.804571152E0
1.783296108E0,-2.298433632E-1,1.149216816E-1,9.804571152E0
1.784299135E0,-2.298433632E-1,7.661445439E-2,9.804571152E0
1.785290241E0,-2.298433632E-1,1.149216816E-1,9.804571152E0
1.786290169E0,-1.532289088E-1,1.149216816E-1,9.804662704E0
1.787300110E0,-1.532289088E-1,1.532289088E-1,9.804662704E0
1.788314104E0,-1.532289088E-1,1.149216816E-1,9.804662704E0
1.789317131E0,-1.532289088E-1,1.532289088E-1,9.804662704E0
1.790469170E0,-1.532289088E-1,1.149216816E-1,9.804662704E0
1.791338205E0,-1.532289088E-1,1.532289088E-1,9.804662704E0
1.792284012E0,-1.532289088E-1,1.149216816E-1,9.804662704E0
1.793451309E0,-1.532289088E-1,1.532289088E-1,9.804662704E0
1.794322014E0,-1.532289088E-1,1.149216816E-1,9.804662704E0
1.795306206E0,-1.532289088E-1,1.532289088E-1,9.804662704E0
1.796318054E0,-1.532289088E-1,1.149216816E-1,9.804662704E0
1.797355175E0,-1.532289088E-1,1.532289088E-1,9.804662704E0
1.798286200E0,-1.532289088E-1,1.149216816E-1,9.804662704E0
1.799273252E0,-1.532289088E-1,1.532289088E-1,9.804662704E0
1.800426245E0,-1.532289088E-1,1.149216816E-1,9.804662704E0
1.801845074E0,-1.532289088E-1,1.532289088E-1,9.804662704E0
1.802294254E0,-1.532289088E-1,1.149216816E-1,9.804662704E0
1.803277254E0,-1.532289088E-1,1.532289088E-1,9.804662704E0
1.804286242E0,-1.532289088E-1,1.149216816E-1,9.804662704E0
1.805303335E0,-1.532289088E-1,1.532289088E-1,9.804662704E0
1.806304216E0,-1.149216816E-1,0.000000000E0,9.805204391E0
1.807318211E0,-1.149216816E-1,3.830722719E-2,9.805204391E0
1.808299303E0,-1.149216816E-1,0.000000000E0,9.805204391E0
1.809328079E0,-1.149216816E-1,3.830722719E-2,9.805204391E0
1.810378075E0,-1.149216816E-1,0.000000000E0,9.805204391E0
1.811308146E0,-1.149216816E-1,3.830722719E-2,9.805204391E0
1.812313318E0,-1.149216816E-1,0.000000000E0,9.805204391E0
1.813298225E0,-1.149216816E-1,3.830722719E-2,9.805204391E0
1.814294100E0,-1.149216816E-1,0.000000000E0,9.805204391E0
1.815284252E0,-1.149216816E-1,3.830722719E-2,9.805204391E0
1.816328049E0,-1.915361285E-1,7.661445439E-2,9.804989815E0
1.817302227E0,-1.915361285E-1,1.149216816E-1,9.804989815E0
1.818284273E0,-1.915361285E-1,7.661445439E-2,9.804989815E0
1.819304228E0,-1.915361285E-1,1.149216816E-1,9.804989815E0
1.820285082E0,-1.915361285E-1,7.661445439E-2,9.804989815E0
1.821316957E0,-1.915361285E-1,1.149216816E-1,9.804989815E0
1.822347164E0,-1.915361285E-1,7.661445439E-2,9.804989815E0
1.823339224E0,-1.915361285E-1,1.149216816E-1,9.804989815E0
1.824320078E0,-1.915361285E-1,7.661445439E-2,9.804989815E0
1.825286150E0,-1.915361285E-1,1.149216816E-1,9.804989815E0
1.826335192E0,-1.532289088E-1,0.000000000E0,9.805189133E0
1.827294111E0,-1.532289088E-1,3.830722719E-2,9.805189133E0
1.828341246E0,-1.532289088E-1,0.000000000E0,9.805189133E0
1.829291105E0,-1.532289088E-1,3.830722719E-2,9.805189133E0
1.830271244E0,-1.532289088E-1,0.000000000E0,9.805189133E0
1.831289291E0,-1.532289088E-1,3.830722719E-2,9.805189133E0
1.832292080E0,-1.532289088E-1,0.000000000E0,9.805189133E0
1.833289146E0,-1.532289088E-1,3.830722719E-2,9.805189133E0
1.834345102E0,-1.532289088E-1,0.000000000E0,9.805189133E0
1.835292101E0,-1.532289088E-1,3.830722719E-2,9.805189133E0
1.836290359E0,-7.661445439E-2,0.000000000E0,9.805651665E0
1.837280273E0,-7.661445439E-2,3.830722719E-2,9.805651665E0
1.838293076E0,-7.661445439E-2,0.000000000E0,9.805651665E0
1.839282036E0,-7.661445439E-2,3.830722719E-2,9.805651665E0
1.840407133E0,-7.661445439E-2,0.000000000E0,9.805651665E0
1.841308117E0,-7.661445439E-2,3.830722719E-2,9.805651665E0
1.842287064E0,-7.661445439E-2,0.000000000E0,9.805651665E0
1.843275309E0,-7.661445439E-2,3.830722719E-2,9.805651665E0
1.844296217E0,-7.661445439E-2,0.000000000E0,9.805651665E0
1.845312119E0,-7.661445439E-2,3.830722719E-2,9.805651665E0
1.846312046E0,-7.661445439E-2,3.830722719E-2,9.805647850E0
1.847344160E0,-7.661445439E-2,7.661445439E-2,9.805647850E0
1.848328114E0,-7.661445439E-2,3.830722719E-2,9.805647850E0
1.849315166E0,-7.661445439E-2,7.661445439E-2,9.805647850E0
1.850316286E0,-7.661445439E-2,3.830722719E-2,9.805647850E0
1.851382256E0,-7.661445439E-2,7.661445439E-2,9.805647850E0
1.852374315E0,-7.661445439E-2,3.830722719E-2,9.805647850E0
1.853319168E0,-7.661445439E-2,7.661445439E-2,9.805647850E0
1.854298115E0,-7.661445439E-2,3.830722719E-2,9.805647850E0
1.855320215E0,-7.661445439E-2,7.661445439E-2,9.805647850E0
1.856344223E0,-3.830722719E-2,7.661445439E-2,9.805950165E0
1.857264996E0,-3.830722719E-2,1.149216816E-1,9.805950165E0
1.858296156E0,-3.830722719E-2,7.661445439E-2,9.805950165E0
1.859312057E0,-3.830722719E-2,1.149216816E-1,9.805950165E0
1.860309124E0,-3.830722719E-2,7.661445439E-2,9.805950165E0
1.861343145E0,-3.830722719E-2,1.149216816E-1,9.805950165E0
1.862318993E0,-3.830722719E-2,7.661445439E-2,9.805950165E0
1.863329172E0,-3.830722719E-2,1.149216816E-1,9.805950165E0
1.864301205E0,-3.830722719E-2,7.661445439E-2,9.805950165E0
1.865287066E0,-3.830722719E-2,1.149216816E-1,9.805950165E0
1.866262197E0,-1.149216816E-1,3.830722719E-2,9.805937767E0
1.867276192E0,-1.149216816E-1,7.661445439E-2,9.805937767E0
1.868312359E0,-1.149216816E-1,3.830722719E-2,9.805937767E0
1.869287014E0,-1.149216816E-1,7.661445439E-2,9.805937767E0
1.870265961E0,-1.149216816E-1,3.830722719E-2,9.805937767E0
1.871273041E0,-1.149216816E-1,7.661445439E-2,9.805937767E0
1.872323990E0,-1.149216816E-1,3.830722719E-2,9.805937767E0
1.873337984E0,-1.149216816E-1,7.661445439E-2,9.805937767E0
1.874354124E0,-1.149216816E-1,3.830722719E-2,9.805937767E0
1.875355005E0,-7.661445439E-2,3.830722719E-2,9.805937767E0
1.876302242E0,-7.661445439E-2,7.661445439E-2,9.805937767E0
1.877369165E0,-7.661445439E-2,3.830722719E-2,9.805937767E0
1.878317356E0,-7.661445439E-2,7.661445439E-2,9.805937767E0
1.879372120E0,-7.661445439E-2,3.830722719E-2,9.805937767E0
1.880329132E0,-7.661445439E-2,7.661445439E-2,9.805937767E0
1.881312132E0,-7.661445439E-2,3.830722719E-2,9.805937767E0
1.882304192E0,-7.661445439E-2,7.661445439E-2,9.805937767E0
1.883300066E0,-7.661445439E-2,3.830722719E-2,9.805937767E0
1.884309292E0,-7.661445439E-2,7.661445439E-2,9.805937767E0
1.885323286E0,-1.149216816E-1,7.661445439E-2,9.805872917E0
1.886297226E0,-1.149216816E-1,1.149216816E-1,9.805872917E0
1.887320280E0,-1.149216816E-1,7.661445439E-2,9.805872917E0
1.888295174E0,-1.149216816E-1,1.149216816E-1,9.805872917E0
1.889314175E0,-1.149216816E-1,7.661445439E-2,9.805872917E0
1.890315294E0,-1.149216816E-1,1.149216816E-1,9.805872917E0
1.891287327E0,-1.149216816E-1,7.661445439E-2,9.805872917E0
1.892304182E0,-1.149216816E-1,1.149216816E-1,9.805872917E0
1.893304348E0,-1.149216816E-1,7.661445439E-2,9.805872917E0
1.894361258E0,-1.149216816E-1,1.149216816E-1,9.805872917E0
1.895304203E0,-1.532289088E-1,7.661445439E-2,9.805684090E0
1.896313190E0,-1.532289088E-1,1.149216816E-1,9.805684090E0
1.897276163E0,-1.532289088E-1,7.661445439E-2,9.805684090E0
1.898298025E0,-1.532289088E-1,1.149216816E-1,9.805684090E0
1.899300098E0,-1.532289088E-1,7.661445439E-2,9.805684090E0
1.900327206E0,-1.532289088E-1,1.149216816E-1,9.805684090E0
1.901262283E0,-1.532289088E-1,7.661445439E-2,9.805684090E0
1.902281046E0,-1.532289088E-1,1.149216816E-1,9.805684090E0
1.903607130E0,-1.532289088E-1,7.661445439E-2,9.805684090E0
1.904292107E0,-1.532289088E-1,1.149216816E-1,9.805684090E0
1.905313253E0,-1.915361285E-1,1.149216816E-1,9.805299759E0
1.906305313E0,-1.915361285E-1,1.532289088E-1,9.805299759E0
1.907315254E0,-1.915361285E-1,1.149216816E-1,9.805299759E0
1.908315182E0,-1.915361285E-1,1.532289088E-1,9.805299759E0
1.909310102E0,-1.915361285E-1,1.149216816E-1,9.805299759E0
1.910333157E0,-1.915361285E-1,1.532289088E-1,9.805299759E0
1.911334038E0,-1.915361285E-1,1.149216816E-1,9.805299759E0
1.912313938E0,-1.915361285E-1,1.532289088E-1,9.805299759E0
1.913321257E0,-1.915361285E-1,1.149216816E-1,9.805299759E0
1.914302111E0,-1.915361285E-1,1.532289088E-1,9.805299759E0
1.915285110E0,-1.532289088E-1,7.661445439E-2,9.805256844E0
1.916301250E0,-1.532289088E-1,1.149216816E-1,9.805256844E0
1.917480230E0,-1.532289088E-1,7.661445439E-2,9.805256844E0
1.918300152E0,-1.532289088E-1,1.149216816E-1,9.805256844E0
1.919877052E0,-1.532289088E-1,7.661445439E-2,9.805256844E0
1.920545101E0,-1.532289088E-1,1.149216816E-1,9.805256844E0
1.921296120E0,-1.532289088E-1,7.661445439E-2,9.805256844E0
1.922315121E0,-1.532289088E-1,1.149216816E-1,9.805256844E0
1.923324108E0,-1.532289088E-1,7.661445439E-2,9.805256844E0
1.924291372E0,-1.532289088E-1,1.149216816E-1,9.805256844E0
1.925320148E0,-1.149216816E-1,1.532289088E-1,9.805221558E0
1.926308155E0,-1.149216816E-1,1.915361285E-1,9.805221558E0
1.927394152E0,-1.149216816E-1,1.532289088E-1,9.805221558E0
1.928303003E0,-1.149216816E-1,1.915361285E-1,9.805221558E0
1.929268122E0,-1.149216816E-1,1.532289088E-1,9.805221558E0
1.930423260E0,-1.149216816E-1,1.915361285E-1,9.805221558E0
1.931330204E0,-1.149216816E-1,1.532289088E-1,9.805221558E0
1.932473183E0,-1.149216816E-1,1.915361285E-1,9.805221558E0
1.933314323E0,-1.149216816E-1,1.532289088E-1,9.805221558E0
1.934477329E0,-1.149216816E-1,1.915361285E-1,9.805221558E0
1.935335159E0,-2.298433632E-1,7.661445439E-2,9.804829597E0
1.936307192E0,-2.298433632E-1,1.149216816E-1,9.804829597E0
1.937404156E0,-2.298433632E-1,7.661445439E-2,9.804829597E0
1.938295126E0,-2.298433632E-1,1.149216816E-1,9.804829597E0
1.939285278E0,-2.298433632E-1,7.661445439E-2,9.804829597E0
1.940271139E0,-2.298433632E-1,1.149216816E-1,9.804829597E0
1.941288233E0,-2.298433632E-1,7.661445439E-2,9.804829597E0
1.942663193E0,-2.298433632E-1,1.149216816E-1,9.804829597E0
1.943349123E0,-2.298433632E-1,7.661445439E-2,9.804829597E0
1.944300175E0,-2.298433632E-1,1.149216816E-1,9.804829597E0
1.945316076E0,-1.532289088E-1,1.149216816E-1,9.804829597E0
1.946318388E0,-1.532289088E-1,1.532289088E-1,9.804829597E0
1.947287321E0,-1.532289088E-1,1.149216816E-1,9.804829597E0
1.948395252E0,-1.532289088E-1,1.532289088E-1,9.804829597E0
1.949747086E0,-1.532289088E-1,1.149216816E-1,9.804829597E0
1.950253248E0,-1.532289088E-1,1.532289088E-1,9.804829597E0
1.951261044E0,-1.532289088E-1,1.149216816E-1,9.804829597E0
1.952832222E0,-1.532289088E-1,1.532289088E-1,9.804829597E0
1.953353167E0,-1.532289088E-1,1.149216816E-1,9.804829597E0
1.954391241E0,-1.532289088E-1,1.532289088E-1,9.804829597E0
1.955286264E0,-1.532289088E-1,-3.830722719E-2,9.805157661E0
1.956285238E0,-1.532289088E-1,0.000000000E0,9.805157661E0
1.957319021E0,-1.532289088E-1,-3.830722719E-2,9.805157661E0
1.958297968E0,-1.532289088E-1,0.000000000E0,9.805157661E0
1.959316254E0,-1.532289088E-1,-3.830722719E-2,9.805157661E0
1.960303068E0,-1.532289088E-1,0.000000000E0,9.805157661E0
1.961332083E0,-1.532289088E-1,-3.830722719E-2,9.805157661E0
1.962315321E0,-1.532289088E-1,0.000000000E0,9.805157661E0
1.963289976E0,-1.532289088E-1,-3.830722719E-2,9.805157661E0
1.964303970E0,-1.532289088E-1,0.000000000E0,9.805157661E0
1.965350151E0,-1.149216816E-1,7.661445439E-2,9.805344582E0
1.966299057E0,-1.149216816E-1,1.149216816E-1,9.805344582E0
1.967514038E0,-1.149216816E-1,7.661445439E-2,9.805344582E0
1.968334198E0,-1.149216816E-1,1.149216816E-1,9.805344582E0
1.969311237E0,-1.149216816E-1,7.661445439E-2,9.805344582E0
1.970294237E0,-1.149216816E-1,1.149216816E-1,9.805344582E0
1.971376181E0,-1.149216816E-1,7.661445439E-2,9.805344582E0
1.972321272E0,-1.149216816E-1,1.149216816E-1,9.805344582E0
1.973396063E0,-1.149216816E-1,7.661445439E-2,9.805344582E0
1.974315166E0,-1.149216816E-1,1.149216816E-1,9.805344582E0
1.975303173E0,-1.149216816E-1,7.661445439E-2,9.805317879E0
1.976291180E0,-1.149216816E-1,1.149216816E-1,9.805317879E0
1.977293253E0,-1.149216816E-1,7.661445439E-2,9.805317879E0
1.978375196E0,-1.149216816E-1,1.149216816E-1,9.805317879E0
1.979308128E0,-1.149216816E-1,7.661445439E-2,9.805317879E0
1.980310202E0,-1.149216816E-1,1.149216816E-1,9.805317879E0
1.981270313E0,-1.149216816E-1,7.661445439E-2,9.805317879E0
1.982284307E0,-1.149216816E-1,1.149216816E-1,9.805317879E0
1.983345032E0,-1.149216816E-1,7.661445439E-2,9.805317879E0
1.984276056E0,-1.149216816E-1,1.532289088E-1,9.805147171E0
1.985325336E0,-1.149216816E-1,1.915361285E-1,9.805147171E0
1.986292124E0,-1.149216816E-1,1.532289088E-1,9.805147171E0
1.987282038E0,-1.149216816E-1,1.915361285E-1,9.805147171E0
1.988269329E0,-1.149216816E-1,1.532289088E-1,9.805147171E0
1.989301205E0,-1.149216816E-1,1.915361285E-1,9.805147171E0
1.990331173E0,-1.149216816E-1,1.532289088E-1,9.805147171E0
1.991317272E0,-1.149216816E-1,1.915361285E-1,9.805147171E0
1.992362261E0,-1.149216816E-1,1.532289088E-1,9.805147171E0
1.993288040E0,-1.149216816E-1,1.915361285E-1,9.805147171E0
1.994323254E0,-1.149216816E-1,3.830722719E-2,9.805250168E0
1.995330334E0,-1.149216816E-1,7.661445439E-2,9.805250168E0
1.996377230E0,-1.149216816E-1,3.830722719E-2,9.805250168E0
1.997386217E0,-1.149216816E-1,7.661445439E-2,9.805250168E0
1.998299122E0,-1.149216816E-1,3.830722719E-2,9.805250168E0
1.999456167E0,-1.149216816E-1,7.661445439E-2,9.805250168E0
2.000327110E0,-1.149216816E-1,3.830722719E-2,9.805250168E0
2.001340151E0,-1.149216816E-1,7.661445439E-2,9.805250168E0
2.002433300E0,-1.149216816E-1,3.830722719E-2,9.805250168E0
2.003292084E0,-1.149216816E-1,7.661445439E-2,9.805250168E0
2.004354239E0,-7.661445439E-2,0.000000000E0,9.805250168E0
2.005344152E0,-7.661445439E-2,3.830722719E-2,9.805250168E0
2.006340027E0,-7.661445439E-2,0.000000000E0,9.805250168E0
2.007354021E0,-7.661445439E-2,3.830722719E-2,9.805250168E0
2.008281946E0,-7.661445439E-2,0.000000000E0,9.805250168E0
2.009274960E0,-7.661445439E-2,3.830722719E-2,9.805250168E0
2.010318995E0,-7.661445439E-2,0.000000000E0,9.805250168E0
2.011310339E0,-7.661445439E-2,3.830722719E-2,9.805250168E0
2.012302160E0,-7.661445439E-2,0.000000000E0,9.805250168E0
2.013286114E0,-7.661445439E-2,3.830722719E-2,9.805250168E0
2.014285326E0,-1.915361285E-1,7.661445439E-2,9.805038452E0
2.015294075E0,-1.915361285E-1,1.149216816E-1,9.805038452E0
2.016300201E0,-1.915361285E-1,7.661445439E-2,9.805038452E0
2.017320156E0,-1.915361285E-1,1.149216816E-1,9.805038452E0
2.018343210E0,-1.915361285E-1,7.661445439E-2,9.805038452E0
2.019394159E0,-1.915361285E-1,1.149216816E-1,9.805038452E0
2.020308256E0,-1.915361285E-1,7.661445439E-2,9.805038452E0
2.021352053E0,-1.915361285E-1,1.149216816E-1,9.805038452E0
2.022308111E0,-1.915361285E-1,7.661445439E-2,9.805038452E0
2.023307085E0,-1.915361285E-1,1.149216816E-1,9.805038452E0
2.024332285E0,-1.915361285E-1,1.149216816E-1,9.804958344E0
2.025313139E0,-1.915361285E-1,1.532289088E-1,9.804958344E0
2.026339293E0,-1.915361285E-1,1.149216816E-1,9.804958344E0
2.027362347E0,-1.915361285E-1,1.532289088E-1,9.804958344E0
2.028332233E0,-1.915361285E-1,1.149216816E-1,9.804958344E0
2.029457092E0,-1.915361285E-1,1.532289088E-1,9.804958344E0
2.030353069E0,-1.915361285E-1,1.149216816E-1,9.804958344E0
2.031337261E0,-1.915361285E-1,1.532289088E-1,9.804958344E0
2.032382250E0,-1.915361285E-1,1.149216816E-1,9.804958344E0
2.033315182E0,-1.915361285E-1,1.532289088E-1,9.804958344E0
2.034421206E0,-1.915361285E-1,7.661445439E-2,9.804976463E0
2.035394192E0,-1.915361285E-1,1.149216816E-1,9.804976463E0
2.036314964E0,-1.915361285E-1,7.661445439E-2,9.804976463E0
2.037359953E0,-1.915361285E-1,1.149216816E-1,9.804976463E0
2.038349152E0,-1.915361285E-1,7.661445439E-2,9.804976463E0
2.039339304E0,-1.915361285E-1,1.149216816E-1,9.804976463E0
2.040355921E0,-1.915361285E-1,7.661445439E-2,9.804976463E0
2.041298151E0,-1.915361285E-1,1.149216816E-1,9.804976463E0
2.042382956E0,-1.915361285E-1,7.661445439E-2,9.804976463E0
2.043291092E0,-1.915361285E-1,1.149216816E-1,9.804976463E0
2.044453144E0,-1.532289088E-1,3.830722719E-2,9.805104256E0
2.045311213E0,-1.532289088E-1,7.661445439E-2,9.805104256E0
2.046296358E0,-1.532289088E-1,3.830722719E-2,9.805104256E0
2.047285080E0,-1.532289088E-1,7.661445439E-2,9.805104256E0
2.048298120E0,-1.532289088E-1,3.830722719E-2,9.805104256E0
2.049330235E0,-1.532289088E-1,7.661445439E-2,9.805104256E0
2.050301075E0,-1.532289088E-1,3.830722719E-2,9.805104256E0
2.051295280E0,-1.532289088E-1,7.661445439E-2,9.805104256E0
2.052292109E0,-1.532289088E-1,3.830722719E-2,9.805104256E0
2.053281307E0,-1.532289088E-1,7.661445439E-2,9.805104256E0
2.054342031E0,-1.915361285E-1,1.149216816E-1,9.804855347E0
2.055326223E0,-1.915361285E-1,1.532289088E-1,9.804855347E0
2.056355238E0,-1.915361285E-1,1.149216816E-1,9.804855347E0
2.057341099E0,-1.915361285E-1,1.532289088E-1,9.804855347E0
2.058365107E0,-1.915361285E-1,1.149216816E-1,9.804855347E0
2.059347153E0,-1.915361285E-1,1.532289088E-1,9.804855347E0
2.060322285E0,-1.915361285E-1,1.149216816E-1,9.804855347E0
2.061329126E0,-1.915361285E-1,1.532289088E-1,9.804855347E0
2.062368155E0,-1.915361285E-1,1.149216816E-1,9.804855347E0
2.063325167E0,-1.915361285E-1,1.532289088E-1,9.804855347E0
2.064322233E0,-7.661445439E-2,7.661445439E-2,9.805287361E0
2.065307140E0,-7.661445439E-2,1.149216816E-1,9.805287361E0
2.066315174E0,-7.661445439E-2,7.661445439E-2,9.805287361E0
2.067351341E0,-7.661445439E-2,1.149216816E-1,9.805287361E0
2.068352222E0,-7.661445439E-2,7.661445439E-2,9.805287361E0
2.069480181E0,-7.661445439E-2,1.149216816E-1,9.805287361E0
2.070434332E0,-7.661445439E-2,7.661445439E-2,9.805287361E0
2.071310282E0,-7.661445439E-2,1.149216816E-1,9.805287361E0
2.072378159E0,-7.661445439E-2,7.661445439E-2,9.805287361E0
2.073282242E0,-7.661445439E-2,1.149216816E-1,9.805287361E0
2.074307203E0,-3.830722719E-2,7.661445439E-2,9.805287361E0
2.075846195E0,-3.830722719E-2,1.149216816E-1,9.805287361E0
2.076276064E0,-3.830722719E-2,7.661445439E-2,9.805287361E0
2.077316999E0,-3.830722719E-2,1.149216816E-1,9.805287361E0
2.078356266E0,-3.830722719E-2,7.661445439E-2,9.805287361E0
2.079339266E0,-3.830722719E-2,1.149216816E-1,9.805287361E0
2.080308199E0,-3.830722719E-2,7.661445439E-2,9.805287361E0
2.081347227E0,-3.830722719E-2,1.149216816E-1,9.805287361E0
2.082283258E0,-3.830722719E-2,7.661445439E-2,9.805287361E0
2.083791971E0,-1.915361285E-1,1.149216816E-1,9.804996490E0
2.084441185E0,-1.915361285E-1,1.532289088E-1,9.804996490E0
2.085308075E0,-1.915361285E-1,1.149216816E-1,9.804996490E0
2.086300135E0,-1.915361285E-1,1.532289088E-1,9.804996490E0
2.087334156E0,-1.915361285E-1,1.149216816E-1,9.804996490E0
2.088289261E0,-1.915361285E-1,1.532289088E-1,9.804996490E0
2.089317083E0,-1.915361285E-1,1.149216816E-1,9.804996490E0
2.090455294E0,-1.915361285E-1,1.532289088E-1,9.804996490E0
2.091331959E0,-1.915361285E-1,1.149216816E-1,9.804996490E0
2.092316151E0,-1.915361285E-1,1.532289088E-1,9.804996490E0
2.093323231E0,-1.532289088E-1,1.532289088E-1,9.804869652E0
2.094395161E0,-1.532289088E-1,1.915361285E-1,9.804869652E0
2.095351219E0,-1.532289088E-1,1.532289088E-1,9.804869652E0
2.096359015E0,-1.532289088E-1,1.915361285E-1,9.804869652E0
2.097289085E0,-1.532289088E-1,1.532289088E-1,9.804869652E0
2.098326206E0,-1.532289088E-1,1.915361285E-1,9.804869652E0
2.099854946E0,-1.532289088E-1,1.532289088E-1,9.804869652E0
2.100392103E0,-1.532289088E-1,1.915361285E-1,9.804869652E0
2.101279259E0,-1.532289088E-1,1.532289088E-1,9.804869652E0
2.102341175E0,-1.532289088E-1,1.915361285E-1,9.804869652E0
2.103367090E0,-1.532289088E-1,0.000000000E0,9.805098534E0
2.104284048E0,-1.532289088E-1,3.830722719E-2,9.805098534E0
2.105311155E0,-1.532289088E-1,0.000000000E0,9.805098534E0
2.106310129E0,-1.532289088E-1,3.830722719E-2,9.805098534E0
2.107347250E0,-1.532289088E-1,0.000000000E0,9.805098534E0
2.108418226E0,-1.532289088E-1,3.830722719E-2,9.805098534E0
2.109404087E0,-1.532289088E-1,0.000000000E0,9.805098534E0
2.110434294E0,-1.532289088E-1,3.830722719E-2,9.805098534E0
2.111389160E0,-1.532289088E-1,0.000000000E0,9.805098534E0
2.112369061E0,-1.532289088E-1,3.830722719E-2,9.805098534E0
2.113355160E0,-1.149216816E-1,7.661445439E-2,9.805280685E0
2.114310026E0,-1.149216816E-1,1.149216816E-1,9.805280685E0
2.115409136E0,-1.149216816E-1,7.661445439E-2,9.805280685E0
2.116313219E0,-1.149216816E-1,1.149216816E-1,9.805280685E0
2.117358208E0,-1.149216816E-1,7.661445439E-2,9.805280685E0
2.118297338E0,-1.149216816E-1,1.149216816E-1,9.805280685E0
2.119279146E0,-1.149216816E-1,7.661445439E-2,9.805280685E0
2.120310307E0,-1.149216816E-1,1.149216816E-1,9.805280685E0
2.121327162E0,-1.149216816E-1,7.661445439E-2,9.805280685E0
2.122293234E0,-1.149216816E-1,1.149216816E-1,9.805280685E0
2.123321295E0,-1.532289088E-1,7.661445439E-2,9.805244446E0
2.124311209E0,-1.532289088E-1,1.149216816E-1,9.805244446E0
2.125335217E0,-1.532289088E-1,7.661445439E-2,9.805244446E0
2.126340151E0,-1.532289088E-1,1.149216816E-1,9.805244446E0
2.127290964E0,-1.532289088E-1,7.661445439E-2,9.805244446E0
2.128324032E0,-1.532289088E-1,1.149216816E-1,9.805244446E0
2.129321098E0,-1.532289088E-1,7.661445439E-2,9.805244446E0
2.130331993E0,-1.532289088E-1,1.149216816E-1,9.805244446E0
2.131308317E0,-1.532289088E-1,7.661445439E-2,9.805244446E0
2.132301331E0,-1.532289088E-1,1.149216816E-1,9.805244446E0
2.133313179E0,-1.915361285E-1,0.000000000E0,9.805175781E0
2.134297371E0,-1.915361285E-1,3.830722719E-2,9.805175781E0
2.135277271E0,-1.915361285E-1,0.000000000E0,9.805175781E0
2.136308193E0,-1.915361285E-1,3.830722719E-2,9.805175781E0
2.137398243E0,-1.915361285E-1,0.000000000E0,9.805175781E0
2.138318300E0,-1.915361285E-1,3.830722719E-2,9.805175781E0
2.139335155E0,-1.915361285E-1,0.000000000E0,9.805175781E0
2.140328169E0,-1.915361285E-1,3.830722719E-2,9.805175781E0
2.141342163E0,-1.915361285E-1,0.000000000E0,9.805175781E0
2.142403364E0,-1.915361285E-1,3.830722719E-2,9.805175781E0
2.143296242E0,-2.681505978E-1,0.000000000E0,9.804668427E0
2.144445181E0,-2.681505978E-1,3.830722719E-2,9.804668427E0
2.145307064E0,-2.681505978E-1,0.000000000E0,9.804668427E0
2.146942139E0,-2.681505978E-1,3.830722719E-2,9.804668427E0
2.147384167E0,-2.681505978E-1,0.000000000E0,9.804668427E0
2.148550034E0,-2.681505978E-1,3.830722719E-2,9.804668427E0
2.149353266E0,-2.681505978E-1,0.000000000E0,9.804668427E0
2.150308132E0,-2.681505978E-1,3.830722719E-2,9.804668427E0
2.151386023E0,-2.681505978E-1,0.000000000E0,9.804668427E0
2.152334929E0,-2.681505978E-1,3.830722719E-2,9.804668427E0
2.153430223E0,-1.149216816E-1,0.000000000E0,9.805123329E0
2.154301167E0,-1.149216816E-1,3.830722719E-2,9.805123329E0
2.155289173E0,-1.149216816E-1,0.000000000E0,9.805123329E0
2.156330109E0,-1.149216816E-1,3.830722719E-2,9.805123329E0
2.157326221E0,-1.149216816E-1,0.000000000E0,9.805123329E0
2.158311129E0,-1.149216816E-1,3.830722719E-2,9.805123329E0
2.159315109E0,-1.149216816E-1,0.000000000E0,9.805123329E0
2.160353184E0,-1.149216816E-1,3.830722719E-2,9.805123329E0
2.161309242E0,-1.149216816E-1,0.000000000E0,9.805123329E0
2.162278175E0,-1.149216816E-1,3.830722719E-2,9.805123329E0
2.163316250E0,-1.149216816E-1,7.661445439E-2,9.805080414E0
2.164371252E0,-1.149216816E-1,1.149216816E-1,9.805080414E0
2.165338993E0,-1.149216816E-1,7.661445439E-2,9.805080414E0
2.166297197E0,-1.149216816E-1,1.149216816E-1,9.805080414E0
2.167315245E0,-1.149216816E-1,7.661445439E-2,9.805080414E0
2.168411016E0,-1.149216816E-1,1.149216816E-1,9.805080414E0
2.169339180E0,-1.149216816E-1,7.661445439E-2,9.805080414E0
2.170340061E0,-1.149216816E-1,1.149216816E-1,9.805080414E0
2.171325207E0,-1.149216816E-1,7.661445439E-2,9.805080414E0
2.172307253E0,-1.149216816E-1,1.149216816E-1,9.805080414E0
2.173303127E0,-1.149216816E-1,3.830722719E-2,9.805086136E0
2.174499273E0,-1.149216816E-1,7.661445439E-2,9.805086136E0
2.175311089E0,-1.149216816E-1,3.830722719E-2,9.805086136E0
2.176418304E0,-1.149216816E-1,7.661445439E-2,9.805086136E0
2.177397251E0,-1.149216816E-1,3.830722719E-2,9.805086136E0
2.178322077E0,-1.149216816E-1,7.661445439E-2,9.805086136E0
2.179334164E0,-1.149216816E-1,3.830722719E-2,9.805086136E0
2.180389166E0,-1.149216816E-1,7.661445439E-2,9.805086136E0
2.181320190E0,-1.149216816E-1,3.830722719E-2,9.805086136E0
2.182376146E0,-1.532289088E-1,3.830722719E-2,9.805171967E0
2.183327198E0,-1.532289088E-1,7.661445439E-2,9.805171967E0
2.184289217E0,-1.532289088E-1,3.830722719E-2,9.805171967E0
2.185298204E0,-1.532289088E-1,7.661445439E-2,9.805171967E0
2.186345100E0,-1.532289088E-1,3.830722719E-2,9.805171967E0
2.187316179E0,-1.532289088E-1,7.661445439E-2,9.805171967E0
2.188266277E0,-1.532289088E-1,3.830722719E-2,9.805171967E0
2.189285040E0,-1.532289088E-1,7.661445439E-2,9.805171967E0
2.190327168E0,-1.532289088E-1,3.830722719E-2,9.805171967E0
2.191343069E0,-1.532289088E-1,7.661445439E-2,9.805171967E0
2.192323208E0,-1.532289088E-1,7.661445439E-2,9.805130959E0
2.193425179E0,-1.532289088E-1,1.149216816E-1,9.805130959E0
2.194344044E0,-1.532289088E-1,7.661445439E-2,9.805130959E0
2.195346117E0,-1.532289088E-1,1.149216816E-1,9.805130959E0
2.196356058E0,-1.532289088E-1,7.661445439E-2,9.805130959E0
2.197311163E0,-1.532289088E-1,1.149216816E-1,9.805130959E0
2.198318243E0,-1.532289088E-1,7.661445439E-2,9.805130959E0
2.199313164E0,-1.532289088E-1,1.149216816E-1,9.805130959E0
2.200360060E0,-1.532289088E-1,7.661445439E-2,9.805130959E0
2.201317072E0,-1.532289088E-1,1.149216816E-1,9.805130959E0
2.202296257E0,-7.661445439E-2,0.000000000E0,9.805561066E0
2.203324080E0,-7.661445439E-2,3.830722719E-2,9.805561066E0
2.204318047E0,-7.661445439E-2,0.000000000E0,9.805561066E0
2.205317974E0,-7.661445439E-2,3.830722719E-2,9.805561066E0
2.206273317E0,-7.661445439E-2,0.000000000E0,9.805561066E0
2.207306147E0,-7.661445439E-2,3.830722719E-2,9.805561066E0
2.208345175E0,-7.661445439E-2,0.000000000E0,9.805561066E0
2.209300280E0,-7.661445439E-2,3.830722719E-2,9.805561066E0
2.210284233E0,-7.661445439E-2,0.000000000E0,9.805561066E0
2.211285114E0,-7.661445439E-2,3.830722719E-2,9.805561066E0
2.212297201E0,-1.915361285E-1,1.149216816E-1,9.805266380E0
2.213297129E0,-1.915361285E-1,1.532289088E-1,9.805266380E0
2.214320183E0,-1.915361285E-1,1.149216816E-1,9.805266380E0
2.215318203E0,-1.915361285E-1,1.532289088E-1,9.805266380E0
2.216432095E0,-1.915361285E-1,1.149216816E-1,9.805266380E0
2.217283249E0,-1.915361285E-1,1.532289088E-1,9.805266380E0
2.218827248E0,-1.915361285E-1,1.149216816E-1,9.805266380E0
2.219310999E0,-1.915361285E-1,1.532289088E-1,9.805266380E0
2.220297098E0,-1.915361285E-1,1.149216816E-1,9.805266380E0
2.221277237E0,-1.915361285E-1,1.532289088E-1,9.805266380E0
2.222294331E0,-1.915361285E-1,1.149216816E-1,9.805181503E0
2.223324060E0,-1.915361285E-1,1.532289088E-1,9.805181503E0
2.224313259E0,-1.915361285E-1,1.149216816E-1,9.805181503E0
2.225819111E0,-1.915361285E-1,1.532289088E-1,9.805181503E0
2.226285219E0,-1.915361285E-1,1.149216816E-1,9.805181503E0
2.227299213E0,-1.915361285E-1,1.532289088E-1,9.805181503E0
2.228317022E0,-1.915361285E-1,1.149216816E-1,9.805181503E0
2.229279280E0,-1.915361285E-1,1.532289088E-1,9.805181503E0
2.230424166E0,-1.915361285E-1,1.149216816E-1,9.805181503E0
2.231856108E0,-1.915361285E-1,0.000000000E0,9.805281639E0
2.232515335E0,-1.915361285E-1,3.830722719E-2,9.805281639E0
2.233319044E0,-1.915361285E-1,0.000000000E0,9.805281639E0
2.234280109E0,-1.915361285E-1,3.830722719E-2,9.805281639E0
2.235285282E0,-1.915361285E-1,0.000000000E0,9.805281639E0
2.236376286E0,-1.915361285E-1,3.830722719E-2,9.805281639E0
2.237320185E0,-1.915361285E-1,0.000000000E0,9.805281639E0
2.238485098E0,-1.915361285E-1,3.830722719E-2,9.805281639E0
2.239455223E0,-1.915361285E-1,0.000000000E0,9.805281639E0
2.240328074E0,-1.915361285E-1,3.830722719E-2,9.805281639E0
2.241348982E0,-1.915361285E-1,0.000000000E0,9.805281639E0
2.242334127E0,-1.149216816E-1,1.149216816E-1,9.805362701E0
2.243354082E0,-1.149216816E-1,1.532289088E-1,9.805362701E0
2.244306087E0,-1.149216816E-1,1.149216816E-1,9.805362701E0
2.245301247E0,-1.149216816E-1,1.532289088E-1,9.805362701E0
2.246306181E0,-1.149216816E-1,1.149216816E-1,9.805362701E0
2.247344017E0,-1.149216816E-1,1.532289088E-1,9.805362701E0
2.248383284E0,-1.149216816E-1,1.149216816E-1,9.805362701E0
2.249431133E0,-1.149216816E-1,1.532289088E-1,9.805362701E0
2.250277996E0,-1.149216816E-1,1.149216816E-1,9.805362701E0
2.251277208E0,-1.149216816E-1,1.532289088E-1,9.805362701E0
2.252288103E0,-1.149216816E-1,1.149216816E-1,9.805289268E0
2.253415108E0,-1.149216816E-1,1.532289088E-1,9.805289268E0
2.254307270E0,-1.149216816E-1,1.149216816E-1,9.805289268E0
2.255443096E0,-1.149216816E-1,1.532289088E-1,9.805289268E0
2.256325006E0,-1.149216816E-1,1.149216816E-1,9.805289268E0
2.257328033E0,-1.149216816E-1,1.532289088E-1,9.805289268E0
2.258292198E0,-1.149216816E-1,1.149216816E-1,9.805289268E0
2.259886980E0,-1.149216816E-1,1.532289088E-1,9.805289268E0
2.260303974E0,-1.149216816E-1,1.149216816E-1,9.805289268E0
2.261313200E0,-1.149216816E-1,1.532289088E-1,9.805289268E0
2.262305260E0,-7.661445439E-2,0.000000000E0,9.805289268E0
2.263362169E0,-7.661445439E-2,3.830722719E-2,9.805289268E0
2.264308214E0,-7.661445439E-2,0.000000000E0,9.805289268E0
2.265314341E0,-7.661445439E-2,3.830722719E-2,9.805289268E0
2.266281128E0,-7.661445439E-2,0.000000000E0,9.805289268E0
2.267302990E0,-7.661445439E-2,3.830722719E-2,9.805289268E0
2.268378973E0,-7.661445439E-2,0.000000000E0,9.805289268E0
2.269281149E0,-7.661445439E-2,3.830722719E-2,9.805289268E0
2.270291090E0,-7.661445439E-2,0.000000000E0,9.805289268E0
2.271295071E0,-7.661445439E-2,3.830722719E-2,9.805289268E0
2.272299290E0,-7.661445439E-2,7.661445439E-2,9.805528641E0
2.273292303E0,-7.661445439E-2,1.149216816E-1,9.805528641E0
2.274657249E0,-7.661445439E-2,7.661445439E-2,9.805528641E0
2.275266171E0,-7.661445439E-2,1.149216816E-1,9.805528641E0
2.276739359E0,-7.661445439E-2,7.661445439E-2,9.805528641E0
2.277309179E0,-7.661445439E-2,1.149216816E-1,9.805528641E0
2.278420210E0,-7.661445439E-2,7.661445439E-2,9.805528641E0
2.279296160E0,-7.661445439E-2,1.149216816E-1,9.805528641E0
2.280434132E0,-7.661445439E-2,7.661445439E-2,9.805528641E0
2.281286001E0,-7.661445439E-2,1.149216816E-1,9.805528641E0
2.282297373E0,-7.661445439E-2,1.532289088E-1,9.805401802E0
2.283282042E0,-7.661445439E-2,1.915361285E-1,9.805401802E0
2.284345388E0,-7.661445439E-2,1.532289088E-1,9.805401802E0
2.285294294E0,-7.661445439E-2,1.915361285E-1,9.805401802E0
2.286270142E0,-7.661445439E-2,1.532289088E-1,9.805401802E0
2.287304163E0,-7.661445439E-2,1.915361285E-1,9.805401802E0
2.288313389E0,-7.661445439E-2,1.532289088E-1,9.805401802E0
2.289457083E0,-7.661445439E-2,1.915361285E-1,9.805401802E0
2.290431261E0,-7.661445439E-2,1.532289088E-1,9.805401802E0
2.291325092E0,-1.532289088E-1,0.000000000E0,9.805468559E0
2.292307138E0,-1.532289088E-1,3.830722719E-2,9.805468559E0
2.293454170E0,-1.532289088E-1,0.000000000E0,9.805468559E0
2.294438124E0,-1.532289088E-1,3.830722719E-2,9.805468559E0
2.295300007E0,-1.532289088E-1,0.000000000E0,9.805468559E0
2.296365261E0,-1.532289088E-1,3.830722719E-2,9.805468559E0
2.297317028E0,-1.532289088E-1,0.000000000E0,9.805468559E0
2.298314095E0,-1.532289088E-1,3.830722719E-2,9.805468559E0
2.299314022E0,-1.532289088E-1,0.000000000E0,9.805468559E0
2.300352097E0,-1.532289088E-1,3.830722719E-2,9.805468559E0
2.301459074E0,-1.532289088E-1,1.149216816E-1,9.805403709E0
2.302319050E0,-1.532289088E-1,1.532289088E-1,9.805403709E0
2.303308249E0,-1.532289088E-1,1.149216816E-1,9.805403709E0
2.304296017E0,-1.532289088E-1,1.532289088E-1,9.805403709E0
2.305277109E0,-1.532289088E-1,1.149216816E-1,9.805403709E0
2.306300163E0,-1.532289088E-1,1.532289088E-1,9.805403709E0
2.307337046E0,-1.532289088E-1,1.149216816E-1,9.805403709E0
2.308309078E0,-1.532289088E-1,1.532289088E-1,9.805403709E0
2.309335232E0,-1.532289088E-1,1.149216816E-1,9.805403709E0
2.310300112E0,-1.532289088E-1,1.532289088E-1,9.805403709E0
2.311302185E0,-1.532289088E-1,0.000000000E0,9.805527687E0
2.312317133E0,-1.532289088E-1,3.830722719E-2,9.805527687E0
2.313323259E0,-1.532289088E-1,0.000000000E0,9.805527687E0
2.314283133E0,-1.532289088E-1,3.830722719E-2,9.805527687E0
2.315804005E0,-1.532289088E-1,0.000000000E0,9.805527687E0
2.316246271E0,-1.532289088E-1,3.830722719E-2,9.805527687E0
2.317336321E0,-1.532289088E-1,0.000000000E0,9.805527687E0
2.318320990E0,-1.532289088E-1,3.830722719E-2,9.805527687E0
2.319449186E0,-1.532289088E-1,0.000000000E0,9.805527687E0
2.320298195E0,-1.532289088E-1,3.830722719E-2,9.805527687E0
2.321318150E0,-1.149216816E-1,-3.830722719E-2,9.805714607E0
2.322337151E0,-1.149216816E-1,0.000000000E0,9.805714607E0
2.323296309E0,-1.149216816E-1,-3.830722719E-2,9.805714607E0
2.324269295E0,-1.149216816E-1,0.000000000E0,9.805714607E0
2.325328112E0,-1.149216816E-1,-3.830722719E-2,9.805714607E0
2.326352119E0,-1.149216816E-1,0.000000000E0,9.805714607E0
2.327313185E0,-1.149216816E-1,-3.830722719E-2,9.805714607E0
2.328293085E0,-1.149216816E-1,0.000000000E0,9.805714607E0
2.329283237E0,-1.149216816E-1,-3.830722719E-2,9.805714607E0
2.330292225E0,-1.149216816E-1,0.000000000E0,9.805714607E0
2.331320286E0,-1.149216816E-1,7.661445439E-2,9.805680275E0
2.332295179E0,-1.149216816E-1,1.149216816E-1,9.805680275E0
2.333279133E0,-1.149216816E-1,7.661445439E-2,9.805680275E0
2.334348202E0,-1.149216816E-1,1.149216816E-1,9.805680275E0
2.335362196E0,-1.149216816E-1,7.661445439E-2,9.805680275E0
2.336284161E0,-1.149216816E-1,1.149216816E-1,9.805680275E0
2.337393045E0,-1.149216816E-1,7.661445439E-2,9.805680275E0
2.338317156E0,-1.149216816E-1,1.149216816E-1,9.805680275E0
2.339325190E0,-1.149216816E-1,7.661445439E-2,9.805680275E0
2.340343237E0,-1.149216816E-1,1.149216816E-1,9.805680275E0
2.341320038E0,-1.915361285E-1,1.149216816E-1,9.805375099E0
2.342354059E0,-1.915361285E-1,1.532289088E-1,9.805375099E0
2.343321323E0,-1.915361285E-1,1.149216816E-1,9.805375099E0
2.344470263E0,-1.915361285E-1,1.532289088E-1,9.805375099E0
2.345298052E0,-1.915361285E-1,1.149216816E-1,9.805375099E0
2.346318245E0,-1.915361285E-1,1.532289088E-1,9.805375099E0
2.347324133E0,-1.915361285E-1,1.149216816E-1,9.805375099E0
2.348345995E0,-1.915361285E-1,1.532289088E-1,9.805375099E0
2.349924088E0,-1.915361285E-1,1.149216816E-1,9.805375099E0
2.350292206E0,-1.915361285E-1,1.532289088E-1,9.805375099E0
2.351289988E0,-1.149216816E-1,3.830722719E-2,9.805518150E0
2.352287054E0,-1.149216816E-1,7.661445439E-2,9.805518150E0
2.353276014E0,-1.149216816E-1,3.830722719E-2,9.805518150E0
2.354299068E0,-1.149216816E-1,7.661445439E-2,9.805518150E0
